File: Experimental Records, Raw Data, and Supplementary Notes and Figures/batch2/final500/B2_BEST_500#13_Full-377mV.txt
Jan. 19, 2023   12:22:31
Linear Sweep Voltammetry
File: d:\current work\al_oer\electrochemical test data\batch 2\500\B2_BEST_500#13_Full-377mV.txt
Data Source:  Experiment
Instrument Model:  CHI660E
Header:
Note:

Init E (V) = 1.099

Final E (V) = 1.798

Scan Rate (V/s) = 0.010
Sample Interval (V) = 0.001
Quiet Time (sec) = 2
Sensitivity (A/V) = 0.001

Results:

Channel 1:

Potential/V, Current/A
1.099,   -1.674e-5
1.100,   -1.328e-5
1.101,   -1.139e-5
1.102,   -9.952e-6
1.103,   -8.671e-6
1.104,   -7.533e-6
1.105,   -6.581e-6
1.106,   -5.741e-6
1.107,   -4.947e-6
1.108,   -4.291e-6
1.109,   -3.653e-6
1.110,   -3.112e-6
1.111,   -2.601e-6
1.112,   -2.126e-6
1.113,   -1.706e-6
1.114,   -1.372e-6
1.115,   -1.022e-6
1.116,   -6.857e-7
1.117,   -3.767e-7
1.118,   -8.650e-8
1.119,   2.123e-7
1.120,   4.781e-7
1.121,   7.313e-7
1.122,   9.460e-7
1.123,   1.123e-6
1.124,   1.308e-6
1.125,   1.511e-6
1.126,   1.696e-6
1.127,   1.864e-6
1.128,   2.024e-6
1.129,   2.217e-6
1.130,   2.338e-6
1.131,   2.488e-6
1.132,   2.660e-6
1.133,   2.806e-6
1.134,   2.919e-6
1.135,   3.038e-6
1.136,   3.175e-6
1.137,   3.296e-6
1.138,   3.403e-6
1.139,   3.520e-6
1.140,   3.638e-6
1.141,   3.774e-6
1.142,   3.817e-6
1.143,   3.925e-6
1.144,   4.029e-6
1.145,   4.076e-6
1.146,   4.187e-6
1.147,   4.290e-6
1.148,   4.398e-6
1.149,   4.492e-6
1.150,   4.542e-6
1.151,   4.620e-6
1.152,   4.702e-6
1.153,   4.788e-6
1.154,   4.864e-6
1.155,   4.948e-6
1.156,   5.017e-6
1.157,   5.116e-6
1.158,   5.177e-6
1.159,   5.247e-6
1.160,   5.322e-6
1.161,   5.401e-6
1.162,   5.452e-6
1.163,   5.545e-6
1.164,   5.638e-6
1.165,   5.721e-6
1.166,   5.747e-6
1.167,   5.848e-6
1.168,   5.914e-6
1.169,   5.988e-6
1.170,   6.065e-6
1.171,   6.114e-6
1.172,   6.191e-6
1.173,   6.256e-6
1.174,   6.329e-6
1.175,   6.390e-6
1.176,   6.446e-6
1.177,   6.502e-6
1.178,   6.581e-6
1.179,   6.657e-6
1.180,   6.754e-6
1.181,   6.791e-6
1.182,   6.846e-6
1.183,   6.938e-6
1.184,   6.999e-6
1.185,   7.059e-6
1.186,   7.160e-6
1.187,   7.183e-6
1.188,   7.223e-6
1.189,   7.300e-6
1.190,   7.352e-6
1.191,   7.424e-6
1.192,   7.484e-6
1.193,   7.576e-6
1.194,   7.632e-6
1.195,   7.640e-6
1.196,   7.698e-6
1.197,   7.772e-6
1.198,   7.822e-6
1.199,   7.876e-6
1.200,   7.943e-6
1.201,   7.993e-6
1.202,   8.099e-6
1.203,   8.132e-6
1.204,   8.156e-6
1.205,   8.231e-6
1.206,   8.268e-6
1.207,   8.339e-6
1.208,   8.376e-6
1.209,   8.424e-6
1.210,   8.519e-6
1.211,   8.554e-6
1.212,   8.589e-6
1.213,   8.655e-6
1.214,   8.688e-6
1.215,   8.776e-6
1.216,   8.795e-6
1.217,   8.843e-6
1.218,   8.905e-6
1.219,   8.972e-6
1.220,   9.024e-6
1.221,   9.070e-6
1.222,   9.092e-6
1.223,   9.156e-6
1.224,   9.188e-6
1.225,   9.236e-6
1.226,   9.292e-6
1.227,   9.350e-6
1.228,   9.376e-6
1.229,   9.475e-6
1.230,   9.468e-6
1.231,   9.549e-6
1.232,   9.563e-6
1.233,   9.576e-6
1.234,   9.655e-6
1.235,   9.689e-6
1.236,   9.741e-6
1.237,   9.799e-6
1.238,   9.823e-6
1.239,   9.888e-6
1.240,   9.891e-6
1.241,   9.910e-6
1.242,   9.980e-6
1.243,   1.003e-5
1.244,   1.005e-5
1.245,   1.013e-5
1.246,   1.013e-5
1.247,   1.019e-5
1.248,   1.024e-5
1.249,   1.026e-5
1.250,   1.031e-5
1.251,   1.035e-5
1.252,   1.038e-5
1.253,   1.044e-5
1.254,   1.048e-5
1.255,   1.052e-5
1.256,   1.055e-5
1.257,   1.058e-5
1.258,   1.063e-5
1.259,   1.063e-5
1.260,   1.068e-5
1.261,   1.073e-5
1.262,   1.072e-5
1.263,   1.075e-5
1.264,   1.079e-5
1.265,   1.084e-5
1.266,   1.092e-5
1.267,   1.096e-5
1.268,   1.099e-5
1.269,   1.103e-5
1.270,   1.102e-5
1.271,   1.107e-5
1.272,   1.110e-5
1.273,   1.116e-5
1.274,   1.120e-5
1.275,   1.121e-5
1.276,   1.124e-5
1.277,   1.130e-5
1.278,   1.134e-5
1.279,   1.141e-5
1.280,   1.143e-5
1.281,   1.144e-5
1.282,   1.150e-5
1.283,   1.151e-5
1.284,   1.159e-5
1.285,   1.161e-5
1.286,   1.165e-5
1.287,   1.171e-5
1.288,   1.173e-5
1.289,   1.175e-5
1.290,   1.182e-5
1.291,   1.181e-5
1.292,   1.189e-5
1.293,   1.190e-5
1.294,   1.194e-5
1.295,   1.194e-5
1.296,   1.202e-5
1.297,   1.206e-5
1.298,   1.212e-5
1.299,   1.216e-5
1.300,   1.216e-5
1.301,   1.220e-5
1.302,   1.223e-5
1.303,   1.228e-5
1.304,   1.230e-5
1.305,   1.237e-5
1.306,   1.245e-5
1.307,   1.245e-5
1.308,   1.248e-5
1.309,   1.252e-5
1.310,   1.259e-5
1.311,   1.262e-5
1.312,   1.265e-5
1.313,   1.267e-5
1.314,   1.275e-5
1.315,   1.277e-5
1.316,   1.278e-5
1.317,   1.285e-5
1.318,   1.286e-5
1.319,   1.290e-5
1.320,   1.293e-5
1.321,   1.302e-5
1.322,   1.306e-5
1.323,   1.308e-5
1.324,   1.316e-5
1.325,   1.320e-5
1.326,   1.323e-5
1.327,   1.333e-5
1.328,   1.336e-5
1.329,   1.337e-5
1.330,   1.342e-5
1.331,   1.345e-5
1.332,   1.353e-5
1.333,   1.357e-5
1.334,   1.359e-5
1.335,   1.366e-5
1.336,   1.369e-5
1.337,   1.371e-5
1.338,   1.377e-5
1.339,   1.383e-5
1.340,   1.392e-5
1.341,   1.396e-5
1.342,   1.402e-5
1.343,   1.410e-5
1.344,   1.414e-5
1.345,   1.419e-5
1.346,   1.426e-5
1.347,   1.431e-5
1.348,   1.435e-5
1.349,   1.446e-5
1.350,   1.449e-5
1.351,   1.452e-5
1.352,   1.460e-5
1.353,   1.466e-5
1.354,   1.471e-5
1.355,   1.479e-5
1.356,   1.485e-5
1.357,   1.494e-5
1.358,   1.496e-5
1.359,   1.507e-5
1.360,   1.510e-5
1.361,   1.518e-5
1.362,   1.527e-5
1.363,   1.532e-5
1.364,   1.536e-5
1.365,   1.547e-5
1.366,   1.551e-5
1.367,   1.561e-5
1.368,   1.568e-5
1.369,   1.575e-5
1.370,   1.586e-5
1.371,   1.590e-5
1.372,   1.600e-5
1.373,   1.613e-5
1.374,   1.619e-5
1.375,   1.630e-5
1.376,   1.640e-5
1.377,   1.649e-5
1.378,   1.662e-5
1.379,   1.667e-5
1.380,   1.676e-5
1.381,   1.683e-5
1.382,   1.694e-5
1.383,   1.708e-5
1.384,   1.719e-5
1.385,   1.729e-5
1.386,   1.744e-5
1.387,   1.755e-5
1.388,   1.772e-5
1.389,   1.785e-5
1.390,   1.794e-5
1.391,   1.809e-5
1.392,   1.823e-5
1.393,   1.841e-5
1.394,   1.854e-5
1.395,   1.870e-5
1.396,   1.885e-5
1.397,   1.904e-5
1.398,   1.921e-5
1.399,   1.944e-5
1.400,   1.965e-5
1.401,   1.988e-5
1.402,   2.006e-5
1.403,   2.025e-5
1.404,   2.055e-5
1.405,   2.078e-5
1.406,   2.100e-5
1.407,   2.127e-5
1.408,   2.155e-5
1.409,   2.185e-5
1.410,   2.219e-5
1.411,   2.248e-5
1.412,   2.280e-5
1.413,   2.317e-5
1.414,   2.356e-5
1.415,   2.390e-5
1.416,   2.428e-5
1.417,   2.474e-5
1.418,   2.521e-5
1.419,   2.566e-5
1.420,   2.614e-5
1.421,   2.666e-5
1.422,   2.711e-5
1.423,   2.768e-5
1.424,   2.826e-5
1.425,   2.884e-5
1.426,   2.948e-5
1.427,   3.010e-5
1.428,   3.079e-5
1.429,   3.146e-5
1.430,   3.219e-5
1.431,   3.297e-5
1.432,   3.372e-5
1.433,   3.457e-5
1.434,   3.549e-5
1.435,   3.635e-5
1.436,   3.723e-5
1.437,   3.809e-5
1.438,   3.913e-5
1.439,   4.017e-5
1.440,   4.129e-5
1.441,   4.238e-5
1.442,   4.358e-5
1.443,   4.483e-5
1.444,   4.610e-5
1.445,   4.739e-5
1.446,   4.874e-5
1.447,   5.020e-5
1.448,   5.163e-5
1.449,   5.322e-5
1.450,   5.481e-5
1.451,   5.641e-5
1.452,   5.810e-5
1.453,   5.989e-5
1.454,   6.165e-5
1.455,   6.358e-5
1.456,   6.556e-5
1.457,   6.754e-5
1.458,   6.963e-5
1.459,   7.172e-5
1.460,   7.396e-5
1.461,   7.628e-5
1.462,   7.873e-5
1.463,   8.114e-5
1.464,   8.348e-5
1.465,   8.594e-5
1.466,   8.860e-5
1.467,   9.122e-5
1.468,   9.406e-5
1.469,   9.711e-5
1.470,   1.005e-4
1.471,   1.036e-4
1.472,   1.070e-4
1.473,   1.103e-4
1.474,   1.135e-4
1.475,   1.169e-4
1.476,   1.204e-4
1.477,   1.240e-4
1.478,   1.276e-4
1.479,   1.314e-4
1.480,   1.351e-4
1.481,   1.391e-4
1.482,   1.432e-4
1.483,   1.473e-4
1.484,   1.516e-4
1.485,   1.561e-4
1.486,   1.606e-4
1.487,   1.650e-4
1.488,   1.697e-4
1.489,   1.744e-4
1.490,   1.795e-4
1.491,   1.847e-4
1.492,   1.898e-4
1.493,   1.948e-4
1.494,   2.002e-4
1.495,   2.054e-4
1.496,   2.108e-4
1.497,   2.166e-4
1.498,   2.222e-4
1.499,   2.282e-4
1.500,   2.355e-4
1.501,   2.431e-4
1.502,   2.495e-4
1.503,   2.558e-4
1.504,   2.630e-4
1.505,   2.705e-4
1.506,   2.773e-4
1.507,   2.845e-4
1.508,   2.918e-4
1.509,   2.991e-4
1.510,   3.062e-4
1.511,   3.138e-4
1.512,   3.217e-4
1.513,   3.295e-4
1.514,   3.374e-4
1.515,   3.455e-4
1.516,   3.530e-4
1.517,   3.611e-4
1.518,   3.721e-4
1.519,   3.819e-4
1.520,   3.913e-4
1.521,   4.005e-4
1.522,   4.099e-4
1.523,   4.188e-4
1.524,   4.285e-4
1.525,   4.389e-4
1.526,   4.498e-4
1.527,   4.596e-4
1.528,   4.696e-4
1.529,   4.786e-4
1.530,   4.889e-4
1.531,   5.006e-4
1.532,   5.121e-4
1.533,   5.223e-4
1.534,   5.341e-4
1.535,   5.458e-4
1.536,   5.568e-4
1.537,   5.701e-4
1.538,   5.824e-4
1.539,   5.950e-4
1.540,   6.092e-4
1.541,   6.220e-4
1.542,   6.353e-4
1.543,   6.486e-4
1.544,   6.604e-4
1.545,   6.737e-4
1.546,   6.883e-4
1.547,   7.012e-4
1.548,   7.148e-4
1.549,   7.266e-4
1.550,   7.437e-4
1.551,   7.614e-4
1.552,   7.741e-4
1.553,   7.893e-4
1.554,   8.076e-4
1.555,   8.253e-4
1.556,   8.418e-4
1.557,   8.579e-4
1.558,   8.770e-4
1.559,   8.924e-4
1.560,   9.099e-4
1.561,   9.284e-4
1.562,   9.474e-4
1.563,   9.619e-4
1.564,   9.802e-4
1.565,   1.000e-3
1.566,   1.017e-3
1.567,   1.033e-3
1.568,   1.054e-3
1.569,   1.074e-3
1.570,   1.093e-3
1.571,   1.114e-3
1.572,   1.132e-3
1.573,   1.153e-3
1.574,   1.173e-3
1.575,   1.190e-3
1.576,   1.208e-3
1.577,   1.225e-3
1.578,   1.247e-3
1.579,   1.269e-3
1.580,   1.287e-3
1.581,   1.308e-3
1.582,   1.330e-3
1.583,   1.352e-3
1.584,   1.370e-3
1.585,   1.393e-3
1.586,   1.416e-3
1.587,   1.434e-3
1.588,   1.452e-3
1.589,   1.483e-3
1.590,   1.509e-3
1.591,   1.531e-3
1.592,   1.555e-3
1.593,   1.578e-3
1.594,   1.598e-3
1.595,   1.621e-3
1.596,   1.644e-3
1.597,   1.666e-3
1.598,   1.693e-3
1.599,   1.718e-3
1.600,   1.739e-3
1.601,   1.766e-3
1.602,   1.788e-3
1.603,   1.809e-3
1.604,   1.841e-3
1.605,   1.867e-3
1.606,   1.891e-3
1.607,   1.924e-3
1.608,   1.951e-3
1.609,   1.978e-3
1.610,   1.990e-3
1.611,   2.011e-3
1.612,   2.049e-3
1.613,   2.079e-3
1.614,   2.107e-3
1.615,   2.134e-3
1.616,   2.162e-3
1.617,   2.188e-3
1.618,   2.216e-3
1.619,   2.242e-3
1.620,   2.268e-3
1.621,   2.300e-3
1.622,   2.325e-3
1.623,   2.353e-3
1.624,   2.387e-3
1.625,   2.419e-3
1.626,   2.449e-3
1.627,   2.478e-3
1.628,   2.504e-3
1.629,   2.528e-3
1.630,   2.559e-3
1.631,   2.589e-3
1.632,   2.618e-3
1.633,   2.637e-3
1.634,   2.680e-3
1.635,   2.721e-3
1.636,   2.752e-3
1.637,   2.783e-3
1.638,   2.814e-3
1.639,   2.846e-3
1.640,   2.877e-3
1.641,   2.910e-3
1.642,   2.938e-3
1.643,   2.961e-3
1.644,   2.985e-3
1.645,   3.026e-3
1.646,   3.053e-3
1.647,   3.095e-3
1.648,   3.135e-3
1.649,   3.167e-3
1.650,   3.198e-3
1.651,   3.234e-3
1.652,   3.264e-3
1.653,   3.291e-3
1.654,   3.327e-3
1.655,   3.364e-3
1.656,   3.397e-3
1.657,   3.429e-3
1.658,   3.466e-3
1.659,   3.498e-3
1.660,   3.532e-3
1.661,   3.567e-3
1.662,   3.604e-3
1.663,   3.629e-3
1.664,   3.673e-3
1.665,   3.714e-3
1.666,   3.751e-3
1.667,   3.787e-3
1.668,   3.822e-3
1.669,   3.856e-3
1.670,   3.884e-3
1.671,   3.923e-3
1.672,   3.962e-3
1.673,   3.993e-3
1.674,   4.033e-3
1.675,   4.077e-3
1.676,   4.117e-3
1.677,   4.150e-3
1.678,   4.189e-3
1.679,   4.223e-3
1.680,   4.267e-3
1.681,   4.296e-3
1.682,   4.332e-3
1.683,   4.373e-3
1.684,   4.411e-3
1.685,   4.443e-3
1.686,   4.474e-3
1.687,   4.515e-3
1.688,   4.558e-3
1.689,   4.596e-3
1.690,   4.632e-3
1.691,   4.656e-3
1.692,   4.728e-3
1.693,   4.776e-3
1.694,   4.820e-3
1.695,   4.858e-3
1.696,   4.898e-3
1.697,   4.935e-3
1.698,   4.968e-3
1.699,   5.000e-3
1.700,   5.049e-3
1.701,   5.088e-3
1.702,   5.125e-3
1.703,   5.161e-3
1.704,   5.200e-3
1.705,   5.243e-3
1.706,   5.295e-3
1.707,   5.329e-3
1.708,   5.355e-3
1.709,   5.418e-3
1.710,   5.456e-3
1.711,   5.489e-3
1.712,   5.535e-3
1.713,   5.573e-3
1.714,   5.606e-3
1.715,   5.651e-3
1.716,   5.701e-3
1.717,   5.741e-3
1.718,   5.775e-3
1.719,   5.814e-3
1.720,   5.848e-3
1.721,   5.873e-3
1.722,   5.931e-3
1.723,   5.973e-3
1.724,   6.014e-3
1.725,   6.065e-3
1.726,   6.099e-3
1.727,   6.134e-3
1.728,   6.169e-3
1.729,   6.201e-3
1.730,   6.247e-3
1.731,   6.293e-3
1.732,   6.332e-3
1.733,   6.379e-3
1.734,   6.424e-3
1.735,   6.454e-3
1.736,   6.503e-3
1.737,   6.541e-3
1.738,   6.581e-3
1.739,   6.618e-3
1.740,   6.644e-3
1.741,   6.682e-3
1.742,   6.716e-3
1.743,   6.758e-3
1.744,   6.793e-3
1.745,   6.830e-3
1.746,   6.891e-3
1.747,   6.958e-3
1.748,   7.000e-3
1.749,   7.036e-3
1.750,   7.067e-3
1.751,   7.095e-3
1.752,   7.135e-3
1.753,   7.180e-3
1.754,   7.221e-3
1.755,   7.257e-3
1.756,   7.289e-3
1.757,   7.326e-3
1.758,   7.395e-3
1.759,   7.434e-3
1.760,   7.467e-3
1.761,   7.493e-3
1.762,   7.532e-3
1.763,   7.586e-3
1.764,   7.619e-3
1.765,   7.641e-3
1.766,   7.669e-3
1.767,   7.701e-3
1.768,   7.749e-3
1.769,   7.788e-3
1.770,   7.819e-3
1.771,   7.849e-3
1.772,   7.919e-3
1.773,   7.957e-3
1.774,   7.983e-3
1.775,   8.016e-3
1.776,   8.049e-3
1.777,   8.075e-3
1.778,   8.108e-3
1.779,   8.166e-3
1.780,   8.194e-3
1.781,   8.255e-3
1.782,   8.287e-3
1.783,   8.313e-3
1.784,   8.340e-3
1.785,   8.391e-3
1.786,   8.406e-3
1.787,   8.453e-3
1.788,   8.485e-3
1.789,   8.513e-3
1.790,   8.546e-3
1.791,   8.581e-3
1.792,   8.615e-3
1.793,   8.642e-3
1.794,   8.671e-3
1.795,   8.685e-3
1.796,   8.726e-3
1.797,   8.782e-3
1.798,   8.826e-3