File: Experimental Records, Raw Data, and Supplementary Notes and Figures/batch2/final500/B2_BEST_500#1_Full-257mV.txt
Jan. 18, 2023   15:16:56
Linear Sweep Voltammetry
File: d:\current work\al_oer\electrochemical test data\batch 2\500\B2_BEST_500#1_Full-257mV.txt
Data Source:  Experiment
Instrument Model:  CHI660E
Header:
Note:

Init E (V) = 1.098

Final E (V) = 1.558

Scan Rate (V/s) = 0.010
Sample Interval (V) = 0.001
Quiet Time (sec) = 2
Sensitivity (A/V) = 0.001
Comp R (ohm) = 5.0

Results:

Channel 1:

Potential/V, Current/A
1.098,   1.209e-4
1.099,   1.217e-4
1.100,   1.155e-4
1.101,   1.090e-4
1.102,   1.035e-4
1.103,   9.855e-5
1.104,   9.415e-5
1.105,   9.043e-5
1.106,   8.684e-5
1.107,   8.366e-5
1.108,   8.105e-5
1.109,   7.845e-5
1.110,   7.621e-5
1.111,   7.409e-5
1.112,   7.214e-5
1.113,   7.044e-5
1.114,   6.880e-5
1.115,   6.733e-5
1.116,   6.591e-5
1.117,   6.479e-5
1.118,   6.375e-5
1.119,   6.262e-5
1.120,   6.169e-5
1.121,   6.077e-5
1.122,   5.961e-5
1.123,   5.897e-5
1.124,   5.845e-5
1.125,   5.784e-5
1.126,   5.738e-5
1.127,   5.672e-5
1.128,   5.605e-5
1.129,   5.579e-5
1.130,   5.515e-5
1.131,   5.471e-5
1.132,   5.467e-5
1.133,   5.494e-5
1.134,   5.406e-5
1.135,   5.338e-5
1.136,   5.288e-5
1.137,   5.266e-5
1.138,   5.242e-5
1.139,   5.214e-5
1.140,   5.195e-5
1.141,   5.168e-5
1.142,   5.142e-5
1.143,   5.130e-5
1.144,   5.133e-5
1.145,   5.113e-5
1.146,   5.097e-5
1.147,   5.098e-5
1.148,   5.083e-5
1.149,   5.064e-5
1.150,   5.068e-5
1.151,   5.057e-5
1.152,   5.051e-5
1.153,   5.057e-5
1.154,   5.029e-5
1.155,   5.030e-5
1.156,   5.035e-5
1.157,   5.018e-5
1.158,   5.033e-5
1.159,   5.016e-5
1.160,   5.014e-5
1.161,   5.036e-5
1.162,   5.015e-5
1.163,   5.014e-5
1.164,   5.036e-5
1.165,   5.023e-5
1.166,   5.030e-5
1.167,   5.041e-5
1.168,   5.032e-5
1.169,   5.054e-5
1.170,   5.062e-5
1.171,   5.070e-5
1.172,   5.075e-5
1.173,   5.080e-5
1.174,   5.089e-5
1.175,   5.091e-5
1.176,   5.104e-5
1.177,   5.107e-5
1.178,   5.100e-5
1.179,   5.125e-5
1.180,   5.135e-5
1.181,   5.136e-5
1.182,   5.169e-5
1.183,   5.164e-5
1.184,   5.184e-5
1.185,   5.209e-5
1.186,   5.195e-5
1.187,   5.210e-5
1.188,   5.237e-5
1.189,   5.229e-5
1.190,   5.257e-5
1.191,   5.277e-5
1.192,   5.272e-5
1.193,   5.302e-5
1.194,   5.304e-5
1.195,   5.317e-5
1.196,   5.347e-5
1.197,   5.334e-5
1.198,   5.345e-5
1.199,   5.367e-5
1.200,   5.378e-5
1.201,   5.392e-5
1.202,   5.415e-5
1.203,   5.422e-5
1.204,   5.442e-5
1.205,   5.452e-5
1.206,   5.471e-5
1.207,   5.474e-5
1.208,   5.504e-5
1.209,   5.522e-5
1.210,   5.515e-5
1.211,   5.556e-5
1.212,   5.566e-5
1.213,   5.558e-5
1.214,   5.599e-5
1.215,   5.609e-5
1.216,   5.604e-5
1.217,   5.648e-5
1.218,   5.640e-5
1.219,   5.654e-5
1.220,   5.685e-5
1.221,   5.704e-5
1.222,   5.707e-5
1.223,   5.726e-5
1.224,   5.734e-5
1.225,   5.752e-5
1.226,   5.756e-5
1.227,   5.783e-5
1.228,   5.787e-5
1.229,   5.792e-5
1.230,   5.820e-5
1.231,   5.819e-5
1.232,   5.832e-5
1.233,   5.871e-5
1.234,   5.857e-5
1.235,   5.874e-5
1.236,   5.899e-5
1.237,   5.884e-5
1.238,   5.916e-5
1.239,   5.918e-5
1.240,   5.917e-5
1.241,   5.956e-5
1.242,   5.949e-5
1.243,   5.944e-5
1.244,   5.973e-5
1.245,   5.983e-5
1.246,   5.982e-5
1.247,   6.003e-5
1.248,   6.006e-5
1.249,   6.011e-5
1.250,   6.015e-5
1.251,   6.041e-5
1.252,   6.030e-5
1.253,   6.035e-5
1.254,   6.060e-5
1.255,   6.043e-5
1.256,   6.047e-5
1.257,   6.075e-5
1.258,   6.057e-5
1.259,   6.077e-5
1.260,   6.097e-5
1.261,   6.068e-5
1.262,   6.092e-5
1.263,   6.088e-5
1.264,   6.080e-5
1.265,   6.109e-5
1.266,   6.098e-5
1.267,   6.098e-5
1.268,   6.113e-5
1.269,   6.103e-5
1.270,   6.102e-5
1.271,   6.113e-5
1.272,   6.121e-5
1.273,   6.126e-5
1.274,   6.120e-5
1.275,   6.120e-5
1.276,   6.120e-5
1.277,   6.126e-5
1.278,   6.137e-5
1.279,   6.119e-5
1.280,   6.137e-5
1.281,   6.136e-5
1.282,   6.119e-5
1.283,   6.144e-5
1.284,   6.138e-5
1.285,   6.132e-5
1.286,   6.159e-5
1.287,   6.128e-5
1.288,   6.143e-5
1.289,   6.160e-5
1.290,   6.131e-5
1.291,   6.148e-5
1.292,   6.167e-5
1.293,   6.129e-5
1.294,   6.160e-5
1.295,   6.164e-5
1.296,   6.150e-5
1.297,   6.179e-5
1.298,   6.163e-5
1.299,   6.164e-5
1.300,   6.179e-5
1.301,   6.149e-5
1.302,   6.176e-5
1.303,   6.186e-5
1.304,   6.185e-5
1.305,   6.201e-5
1.306,   6.196e-5
1.307,   6.200e-5
1.308,   6.210e-5
1.309,   6.215e-5
1.310,   6.217e-5
1.311,   6.225e-5
1.312,   6.242e-5
1.313,   6.246e-5
1.314,   6.246e-5
1.315,   6.266e-5
1.316,   6.264e-5
1.317,   6.266e-5
1.318,   6.284e-5
1.319,   6.285e-5
1.320,   6.304e-5
1.321,   6.320e-5
1.322,   6.306e-5
1.323,   6.342e-5
1.324,   6.367e-5
1.325,   6.347e-5
1.326,   6.377e-5
1.327,   6.369e-5
1.328,   6.376e-5
1.329,   6.414e-5
1.330,   6.409e-5
1.331,   6.422e-5
1.332,   6.449e-5
1.333,   6.438e-5
1.334,   6.474e-5
1.335,   6.489e-5
1.336,   6.499e-5
1.337,   6.525e-5
1.338,   6.534e-5
1.339,   6.542e-5
1.340,   6.564e-5
1.341,   6.579e-5
1.342,   6.603e-5
1.343,   6.610e-5
1.344,   6.640e-5
1.345,   6.658e-5
1.346,   6.666e-5
1.347,   6.693e-5
1.348,   6.727e-5
1.349,   6.723e-5
1.350,   6.774e-5
1.351,   6.780e-5
1.352,   6.787e-5
1.353,   6.833e-5
1.354,   6.862e-5
1.355,   6.881e-5
1.356,   6.921e-5
1.357,   6.934e-5
1.358,   6.963e-5
1.359,   6.993e-5
1.360,   7.032e-5
1.361,   7.070e-5
1.362,   7.099e-5
1.363,   7.124e-5
1.364,   7.153e-5
1.365,   7.186e-5
1.366,   7.232e-5
1.367,   7.251e-5
1.368,   7.305e-5
1.369,   7.356e-5
1.370,   7.359e-5
1.371,   7.422e-5
1.372,   7.467e-5
1.373,   7.487e-5
1.374,   7.581e-5
1.375,   7.620e-5
1.376,   7.655e-5
1.377,   7.726e-5
1.378,   7.756e-5
1.379,   7.803e-5
1.380,   7.894e-5
1.381,   7.932e-5
1.382,   8.000e-5
1.383,   8.068e-5
1.384,   8.129e-5
1.385,   8.214e-5
1.386,   8.275e-5
1.387,   8.360e-5
1.388,   8.444e-5
1.389,   8.538e-5
1.390,   8.623e-5
1.391,   8.708e-5
1.392,   8.822e-5
1.393,   8.923e-5
1.394,   9.027e-5
1.395,   9.164e-5
1.396,   9.269e-5
1.397,   9.391e-5
1.398,   9.545e-5
1.399,   9.663e-5
1.400,   9.824e-5
1.401,   9.996e-5
1.402,   1.013e-4
1.403,   1.033e-4
1.404,   1.053e-4
1.405,   1.070e-4
1.406,   1.092e-4
1.407,   1.114e-4
1.408,   1.136e-4
1.409,   1.164e-4
1.410,   1.189e-4
1.411,   1.215e-4
1.412,   1.246e-4
1.413,   1.277e-4
1.414,   1.309e-4
1.415,   1.343e-4
1.416,   1.378e-4
1.417,   1.416e-4
1.418,   1.455e-4
1.419,   1.499e-4
1.420,   1.542e-4
1.421,   1.588e-4
1.422,   1.638e-4
1.423,   1.687e-4
1.424,   1.743e-4
1.425,   1.802e-4
1.426,   1.864e-4
1.427,   1.926e-4
1.428,   1.993e-4
1.429,   2.060e-4
1.430,   2.138e-4
1.431,   2.214e-4
1.432,   2.294e-4
1.433,   2.384e-4
1.434,   2.470e-4
1.435,   2.564e-4
1.436,   2.665e-4
1.437,   2.765e-4
1.438,   2.876e-4
1.439,   2.989e-4
1.440,   3.104e-4
1.441,   3.233e-4
1.442,   3.361e-4
1.443,   3.497e-4
1.444,   3.641e-4
1.445,   3.790e-4
1.446,   3.944e-4
1.447,   4.107e-4
1.448,   4.278e-4
1.449,   4.453e-4
1.450,   4.636e-4
1.451,   4.834e-4
1.452,   5.032e-4
1.453,   5.240e-4
1.454,   5.461e-4
1.455,   5.687e-4
1.456,   5.923e-4
1.457,   6.170e-4
1.458,   6.421e-4
1.459,   6.691e-4
1.460,   6.965e-4
1.461,   7.247e-4
1.462,   7.548e-4
1.463,   7.853e-4
1.464,   8.171e-4
1.465,   8.501e-4
1.466,   8.840e-4
1.467,   9.197e-4
1.468,   9.566e-4
1.469,   9.942e-4
1.470,   1.034e-3
1.471,   1.074e-3
1.472,   1.116e-3
1.473,   1.159e-3
1.474,   1.204e-3
1.475,   1.250e-3
1.476,   1.297e-3
1.477,   1.346e-3
1.478,   1.396e-3
1.479,   1.448e-3
1.480,   1.500e-3
1.481,   1.556e-3
1.482,   1.612e-3
1.483,   1.669e-3
1.484,   1.727e-3
1.485,   1.786e-3
1.486,   1.853e-3
1.487,   1.922e-3
1.488,   1.987e-3
1.489,   2.052e-3
1.490,   2.120e-3
1.491,   2.190e-3
1.492,   2.261e-3
1.493,   2.333e-3
1.494,   2.405e-3
1.495,   2.479e-3
1.496,   2.560e-3
1.497,   2.649e-3
1.498,   2.727e-3
1.499,   2.809e-3
1.500,   2.886e-3
1.501,   2.983e-3
1.502,   3.080e-3
1.503,   3.163e-3
1.504,   3.245e-3
1.505,   3.334e-3
1.506,   3.424e-3
1.507,   3.530e-3
1.508,   3.638e-3
1.509,   3.790e-3
1.510,   3.889e-3
1.511,   3.982e-3
1.512,   4.074e-3
1.513,   4.170e-3
1.514,   4.263e-3
1.515,   4.357e-3
1.516,   4.446e-3
1.517,   4.541e-3
1.518,   4.721e-3
1.519,   4.884e-3
1.520,   4.980e-3
1.521,   5.113e-3
1.522,   5.219e-3
1.523,   5.314e-3
1.524,   5.520e-3
1.525,   5.699e-3
1.526,   5.787e-3
1.527,   5.871e-3
1.528,   5.960e-3
1.529,   6.059e-3
1.530,   6.166e-3
1.531,   6.292e-3
1.532,   6.434e-3
1.533,   6.693e-3
1.534,   6.960e-3
1.535,   7.036e-3
1.536,   7.107e-3
1.537,   7.205e-3
1.538,   7.300e-3
1.539,   7.373e-3
1.540,   7.548e-3
1.541,   7.652e-3
1.542,   7.743e-3
1.543,   7.945e-3
1.544,   8.502e-3
1.545,   8.817e-3
1.546,   8.950e-3
1.547,   9.105e-3
1.548,   9.398e-3
1.549,   9.455e-3
1.550,   9.526e-3
1.551,   9.649e-3
1.552,   9.758e-3
1.553,   9.923e-3
1.554,   9.993e-3
1.555,   1.007e-2
1.556,   1.007e-2
1.557,   1.007e-2
1.558,   1.007e-2