File: Experimental Records, Raw Data, and Supplementary Notes and Figures/batch2/final500/B2_BEST_500#5_Full-354mV.txt
Jan. 18, 2023   16:10:28
Linear Sweep Voltammetry
File: d:\current work\al_oer\electrochemical test data\batch 2\500\B2_BEST_500#5_Full-354mV.txt
Data Source:  Experiment
Instrument Model:  CHI660E
Header:
Note:

Init E (V) = 1.099

Final E (V) = 1.701

Scan Rate (V/s) = 0.010
Sample Interval (V) = 0.001
Quiet Time (sec) = 2
Sensitivity (A/V) = 0.001
Comp R (ohm) = 4.7

Results:

Channel 1:

Potential/V, Current/A
1.099,   1.512e-5
1.100,   1.475e-5
1.101,   1.400e-5
1.102,   1.319e-5
1.103,   1.248e-5
1.104,   1.192e-5
1.105,   1.137e-5
1.106,   1.090e-5
1.107,   1.042e-5
1.108,   1.003e-5
1.109,   9.691e-6
1.110,   9.371e-6
1.111,   9.079e-6
1.112,   8.850e-6
1.113,   8.590e-6
1.114,   8.304e-6
1.115,   8.107e-6
1.116,   7.914e-6
1.117,   7.759e-6
1.118,   7.617e-6
1.119,   7.439e-6
1.120,   7.336e-6
1.121,   7.176e-6
1.122,   7.104e-6
1.123,   6.982e-6
1.124,   6.895e-6
1.125,   6.794e-6
1.126,   6.691e-6
1.127,   6.636e-6
1.128,   6.539e-6
1.129,   6.486e-6
1.130,   6.418e-6
1.131,   6.372e-6
1.132,   6.304e-6
1.133,   6.252e-6
1.134,   6.163e-6
1.135,   6.103e-6
1.136,   6.059e-6
1.137,   6.031e-6
1.138,   5.967e-6
1.139,   5.975e-6
1.140,   5.919e-6
1.141,   5.891e-6
1.142,   5.871e-6
1.143,   5.860e-6
1.144,   5.864e-6
1.145,   5.871e-6
1.146,   5.816e-6
1.147,   5.718e-6
1.148,   5.720e-6
1.149,   5.697e-6
1.150,   5.681e-6
1.151,   5.671e-6
1.152,   5.673e-6
1.153,   5.657e-6
1.154,   5.669e-6
1.155,   5.630e-6
1.156,   5.638e-6
1.157,   5.633e-6
1.158,   5.626e-6
1.159,   5.657e-6
1.160,   5.648e-6
1.161,   5.606e-6
1.162,   5.652e-6
1.163,   5.660e-6
1.164,   5.617e-6
1.165,   5.616e-6
1.166,   5.632e-6
1.167,   5.638e-6
1.168,   5.647e-6
1.169,   5.644e-6
1.170,   5.652e-6
1.171,   5.709e-6
1.172,   5.723e-6
1.173,   5.701e-6
1.174,   5.670e-6
1.175,   5.702e-6
1.176,   5.684e-6
1.177,   5.673e-6
1.178,   5.728e-6
1.179,   5.714e-6
1.180,   5.725e-6
1.181,   5.753e-6
1.182,   5.764e-6
1.183,   5.813e-6
1.184,   5.891e-6
1.185,   5.945e-6
1.186,   5.969e-6
1.187,   5.997e-6
1.188,   5.961e-6
1.189,   5.966e-6
1.190,   6.018e-6
1.191,   5.991e-6
1.192,   6.038e-6
1.193,   6.094e-6
1.194,   6.120e-6
1.195,   6.069e-6
1.196,   6.018e-6
1.197,   5.995e-6
1.198,   6.064e-6
1.199,   6.078e-6
1.200,   6.103e-6
1.201,   6.129e-6
1.202,   6.103e-6
1.203,   6.142e-6
1.204,   6.190e-6
1.205,   6.219e-6
1.206,   6.219e-6
1.207,   6.277e-6
1.208,   6.283e-6
1.209,   6.280e-6
1.210,   6.315e-6
1.211,   6.304e-6
1.212,   6.367e-6
1.213,   6.380e-6
1.214,   6.414e-6
1.215,   6.415e-6
1.216,   6.435e-6
1.217,   6.479e-6
1.218,   6.470e-6
1.219,   6.468e-6
1.220,   6.519e-6
1.221,   6.551e-6
1.222,   6.576e-6
1.223,   6.615e-6
1.224,   6.619e-6
1.225,   6.576e-6
1.226,   6.638e-6
1.227,   6.642e-6
1.228,   6.688e-6
1.229,   6.753e-6
1.230,   6.750e-6
1.231,   6.755e-6
1.232,   6.767e-6
1.233,   6.746e-6
1.234,   6.731e-6
1.235,   6.800e-6
1.236,   6.809e-6
1.237,   6.846e-6
1.238,   6.893e-6
1.239,   6.887e-6
1.240,   6.888e-6
1.241,   6.894e-6
1.242,   6.909e-6
1.243,   6.937e-6
1.244,   6.959e-6
1.245,   6.920e-6
1.246,   6.961e-6
1.247,   7.014e-6
1.248,   7.034e-6
1.249,   7.026e-6
1.250,   7.081e-6
1.251,   7.059e-6
1.252,   7.113e-6
1.253,   7.096e-6
1.254,   7.087e-6
1.255,   7.142e-6
1.256,   7.144e-6
1.257,   7.172e-6
1.258,   7.211e-6
1.259,   7.220e-6
1.260,   7.254e-6
1.261,   7.248e-6
1.262,   7.264e-6
1.263,   7.243e-6
1.264,   7.335e-6
1.265,   7.307e-6
1.266,   7.360e-6
1.267,   7.339e-6
1.268,   7.350e-6
1.269,   7.410e-6
1.270,   7.419e-6
1.271,   7.443e-6
1.272,   7.444e-6
1.273,   7.503e-6
1.274,   7.482e-6
1.275,   7.498e-6
1.276,   7.498e-6
1.277,   7.502e-6
1.278,   7.531e-6
1.279,   7.539e-6
1.280,   7.581e-6
1.281,   7.645e-6
1.282,   7.657e-6
1.283,   7.657e-6
1.284,   7.650e-6
1.285,   7.671e-6
1.286,   7.724e-6
1.287,   7.716e-6
1.288,   7.775e-6
1.289,   7.807e-6
1.290,   7.812e-6
1.291,   7.852e-6
1.292,   7.891e-6
1.293,   7.925e-6
1.294,   7.920e-6
1.295,   7.961e-6
1.296,   8.011e-6
1.297,   8.008e-6
1.298,   8.005e-6
1.299,   8.091e-6
1.300,   8.154e-6
1.301,   8.178e-6
1.302,   8.168e-6
1.303,   8.190e-6
1.304,   8.243e-6
1.305,   8.323e-6
1.306,   8.366e-6
1.307,   8.343e-6
1.308,   8.398e-6
1.309,   8.452e-6
1.310,   8.447e-6
1.311,   8.469e-6
1.312,   8.505e-6
1.313,   8.572e-6
1.314,   8.665e-6
1.315,   8.664e-6
1.316,   8.682e-6
1.317,   8.702e-6
1.318,   8.763e-6
1.319,   8.831e-6
1.320,   8.911e-6
1.321,   8.928e-6
1.322,   8.928e-6
1.323,   8.982e-6
1.324,   9.078e-6
1.325,   9.122e-6
1.326,   9.155e-6
1.327,   9.202e-6
1.328,   9.267e-6
1.329,   9.311e-6
1.330,   9.379e-6
1.331,   9.412e-6
1.332,   9.442e-6
1.333,   9.480e-6
1.334,   9.566e-6
1.335,   9.632e-6
1.336,   9.589e-6
1.337,   9.664e-6
1.338,   9.718e-6
1.339,   9.758e-6
1.340,   9.809e-6
1.341,   9.906e-6
1.342,   9.959e-6
1.343,   1.004e-5
1.344,   1.008e-5
1.345,   1.010e-5
1.346,   1.018e-5
1.347,   1.021e-5
1.348,   1.028e-5
1.349,   1.033e-5
1.350,   1.036e-5
1.351,   1.048e-5
1.352,   1.050e-5
1.353,   1.049e-5
1.354,   1.058e-5
1.355,   1.065e-5
1.356,   1.069e-5
1.357,   1.074e-5
1.358,   1.084e-5
1.359,   1.090e-5
1.360,   1.099e-5
1.361,   1.103e-5
1.362,   1.105e-5
1.363,   1.115e-5
1.364,   1.126e-5
1.365,   1.132e-5
1.366,   1.140e-5
1.367,   1.146e-5
1.368,   1.149e-5
1.369,   1.159e-5
1.370,   1.167e-5
1.371,   1.173e-5
1.372,   1.180e-5
1.373,   1.192e-5
1.374,   1.196e-5
1.375,   1.205e-5
1.376,   1.216e-5
1.377,   1.220e-5
1.378,   1.233e-5
1.379,   1.238e-5
1.380,   1.245e-5
1.381,   1.257e-5
1.382,   1.265e-5
1.383,   1.277e-5
1.384,   1.289e-5
1.385,   1.299e-5
1.386,   1.314e-5
1.387,   1.327e-5
1.388,   1.338e-5
1.389,   1.357e-5
1.390,   1.366e-5
1.391,   1.380e-5
1.392,   1.398e-5
1.393,   1.411e-5
1.394,   1.433e-5
1.395,   1.451e-5
1.396,   1.474e-5
1.397,   1.496e-5
1.398,   1.512e-5
1.399,   1.537e-5
1.400,   1.559e-5
1.401,   1.581e-5
1.402,   1.609e-5
1.403,   1.631e-5
1.404,   1.659e-5
1.405,   1.695e-5
1.406,   1.724e-5
1.407,   1.760e-5
1.408,   1.795e-5
1.409,   1.831e-5
1.410,   1.874e-5
1.411,   1.909e-5
1.412,   1.950e-5
1.413,   1.996e-5
1.414,   2.047e-5
1.415,   2.094e-5
1.416,   2.148e-5
1.417,   2.205e-5
1.418,   2.258e-5
1.419,   2.315e-5
1.420,   2.381e-5
1.421,   2.441e-5
1.422,   2.506e-5
1.423,   2.582e-5
1.424,   2.654e-5
1.425,   2.734e-5
1.426,   2.812e-5
1.427,   2.896e-5
1.428,   2.993e-5
1.429,   3.086e-5
1.430,   3.179e-5
1.431,   3.278e-5
1.432,   3.378e-5
1.433,   3.488e-5
1.434,   3.605e-5
1.435,   3.719e-5
1.436,   3.839e-5
1.437,   3.972e-5
1.438,   4.096e-5
1.439,   4.238e-5
1.440,   4.390e-5
1.441,   4.533e-5
1.442,   4.700e-5
1.443,   4.860e-5
1.444,   5.028e-5
1.445,   5.205e-5
1.446,   5.388e-5
1.447,   5.580e-5
1.448,   5.775e-5
1.449,   5.984e-5
1.450,   6.205e-5
1.451,   6.425e-5
1.452,   6.659e-5
1.453,   6.904e-5
1.454,   7.154e-5
1.455,   7.421e-5
1.456,   7.692e-5
1.457,   7.978e-5
1.458,   8.278e-5
1.459,   8.581e-5
1.460,   8.898e-5
1.461,   9.227e-5
1.462,   9.557e-5
1.463,   9.912e-5
1.464,   1.027e-4
1.465,   1.066e-4
1.466,   1.105e-4
1.467,   1.146e-4
1.468,   1.189e-4
1.469,   1.232e-4
1.470,   1.276e-4
1.471,   1.322e-4
1.472,   1.370e-4
1.473,   1.418e-4
1.474,   1.469e-4
1.475,   1.522e-4
1.476,   1.576e-4
1.477,   1.631e-4
1.478,   1.690e-4
1.479,   1.749e-4
1.480,   1.810e-4
1.481,   1.874e-4
1.482,   1.938e-4
1.483,   2.004e-4
1.484,   2.074e-4
1.485,   2.143e-4
1.486,   2.216e-4
1.487,   2.293e-4
1.488,   2.370e-4
1.489,   2.450e-4
1.490,   2.532e-4
1.491,   2.613e-4
1.492,   2.697e-4
1.493,   2.787e-4
1.494,   2.877e-4
1.495,   2.970e-4
1.496,   3.065e-4
1.497,   3.160e-4
1.498,   3.254e-4
1.499,   3.353e-4
1.500,   3.455e-4
1.501,   3.560e-4
1.502,   3.671e-4
1.503,   3.778e-4
1.504,   3.893e-4
1.505,   4.005e-4
1.506,   4.114e-4
1.507,   4.232e-4
1.508,   4.352e-4
1.509,   4.473e-4
1.510,   4.600e-4
1.511,   4.721e-4
1.512,   4.849e-4
1.513,   4.981e-4
1.514,   5.112e-4
1.515,   5.249e-4
1.516,   5.381e-4
1.517,   5.519e-4
1.518,   5.663e-4
1.519,   5.809e-4
1.520,   5.950e-4
1.521,   6.097e-4
1.522,   6.245e-4
1.523,   6.384e-4
1.524,   6.533e-4
1.525,   6.682e-4
1.526,   6.836e-4
1.527,   6.999e-4
1.528,   7.166e-4
1.529,   7.336e-4
1.530,   7.505e-4
1.531,   7.667e-4
1.532,   7.829e-4
1.533,   8.014e-4
1.534,   8.188e-4
1.535,   8.355e-4
1.536,   8.536e-4
1.537,   8.725e-4
1.538,   8.905e-4
1.539,   9.097e-4
1.540,   9.276e-4
1.541,   9.452e-4
1.542,   9.642e-4
1.543,   9.831e-4
1.544,   1.003e-3
1.545,   1.024e-3
1.546,   1.043e-3
1.547,   1.060e-3
1.548,   1.079e-3
1.549,   1.097e-3
1.550,   1.117e-3
1.551,   1.139e-3
1.552,   1.161e-3
1.553,   1.182e-3
1.554,   1.202e-3
1.555,   1.224e-3
1.556,   1.244e-3
1.557,   1.265e-3
1.558,   1.289e-3
1.559,   1.311e-3
1.560,   1.332e-3
1.561,   1.353e-3
1.562,   1.375e-3
1.563,   1.399e-3
1.564,   1.422e-3
1.565,   1.445e-3
1.566,   1.470e-3
1.567,   1.493e-3
1.568,   1.514e-3
1.569,   1.537e-3
1.570,   1.562e-3
1.571,   1.588e-3
1.572,   1.612e-3
1.573,   1.635e-3
1.574,   1.662e-3
1.575,   1.684e-3
1.576,   1.707e-3
1.577,   1.733e-3
1.578,   1.767e-3
1.579,   1.790e-3
1.580,   1.815e-3
1.581,   1.846e-3
1.582,   1.876e-3
1.583,   1.901e-3
1.584,   1.926e-3
1.585,   1.952e-3
1.586,   1.979e-3
1.587,   2.005e-3
1.588,   2.027e-3
1.589,   2.052e-3
1.590,   2.078e-3
1.591,   2.104e-3
1.592,   2.127e-3
1.593,   2.155e-3
1.594,   2.193e-3
1.595,   2.216e-3
1.596,   2.248e-3
1.597,   2.270e-3
1.598,   2.295e-3
1.599,   2.321e-3
1.600,   2.346e-3
1.601,   2.374e-3
1.602,   2.403e-3
1.603,   2.435e-3
1.604,   2.469e-3
1.605,   2.498e-3
1.606,   2.529e-3
1.607,   2.559e-3
1.608,   2.591e-3
1.609,   2.616e-3
1.610,   2.647e-3
1.611,   2.677e-3
1.612,   2.699e-3
1.613,   2.730e-3
1.614,   2.762e-3
1.615,   2.790e-3
1.616,   2.813e-3
1.617,   2.844e-3
1.618,   2.875e-3
1.619,   2.906e-3
1.620,   2.946e-3
1.621,   2.980e-3
1.622,   3.007e-3
1.623,   3.025e-3
1.624,   3.047e-3
1.625,   3.072e-3
1.626,   3.111e-3
1.627,   3.144e-3
1.628,   3.163e-3
1.629,   3.189e-3
1.630,   3.207e-3
1.631,   3.232e-3
1.632,   3.262e-3
1.633,   3.287e-3
1.634,   3.320e-3
1.635,   3.357e-3
1.636,   3.371e-3
1.637,   3.389e-3
1.638,   3.404e-3
1.639,   3.429e-3
1.640,   3.460e-3
1.641,   3.486e-3
1.642,   3.517e-3
1.643,   3.544e-3
1.644,   3.557e-3
1.645,   3.578e-3
1.646,   3.611e-3
1.647,   3.636e-3
1.648,   3.669e-3
1.649,   3.692e-3
1.650,   3.720e-3
1.651,   3.737e-3
1.652,   3.756e-3
1.653,   3.771e-3
1.654,   3.789e-3
1.655,   3.801e-3
1.656,   3.816e-3
1.657,   3.832e-3
1.658,   3.869e-3
1.659,   3.909e-3
1.660,   3.927e-3
1.661,   3.954e-3
1.662,   3.967e-3
1.663,   3.991e-3
1.664,   4.010e-3
1.665,   4.026e-3
1.666,   4.048e-3
1.667,   4.060e-3
1.668,   4.077e-3
1.669,   4.091e-3
1.670,   4.106e-3
1.671,   4.125e-3
1.672,   4.146e-3
1.673,   4.160e-3
1.674,   4.175e-3
1.675,   4.201e-3
1.676,   4.224e-3
1.677,   4.238e-3
1.678,   4.254e-3
1.679,   4.272e-3
1.680,   4.294e-3
1.681,   4.313e-3
1.682,   4.327e-3
1.683,   4.334e-3
1.684,   4.337e-3
1.685,   4.347e-3
1.686,   4.355e-3
1.687,   4.359e-3
1.688,   4.366e-3
1.689,   4.368e-3
1.690,   4.371e-3
1.691,   4.365e-3
1.692,   4.380e-3
1.693,   4.404e-3
1.694,   4.412e-3
1.695,   4.422e-3
1.696,   4.431e-3
1.697,   4.435e-3
1.698,   4.443e-3
1.699,   4.448e-3
1.700,   4.468e-3
1.701,   4.482e-3