File: Experimental Records, Raw Data, and Supplementary Notes and Figures/batch2/final500/B2_VARIANCE_500#15_High_Quality-320mV.txt
Jan. 19, 2023   13:12:53
Linear Sweep Voltammetry
File: d:\current work\al_oer\electrochemical test data\batch 2\500\B2_VARIANCE_500#15_High_Quality-320mV.txt
Data Source:  Experiment
Instrument Model:  CHI660E
Header:
Note:

Init E (V) = 1.100

Final E (V) = 1.799

Scan Rate (V/s) = 0.010
Sample Interval (V) = 0.001
Quiet Time (sec) = 2
Sensitivity (A/V) = 0.001
Comp R (ohm) = 5.9

Results:

Channel 1:
Ep = 1.516V
ip = 7.054e-3A
Ah = 1.340e-1C

Potential/V, Current/A
1.100,   2.709e-5
1.101,   2.638e-5
1.102,   2.484e-5
1.103,   2.339e-5
1.104,   2.216e-5
1.105,   2.109e-5
1.106,   2.012e-5
1.107,   1.924e-5
1.108,   1.845e-5
1.109,   1.773e-5
1.110,   1.712e-5
1.111,   1.658e-5
1.112,   1.612e-5
1.113,   1.564e-5
1.114,   1.531e-5
1.115,   1.491e-5
1.116,   1.455e-5
1.117,   1.422e-5
1.118,   1.397e-5
1.119,   1.370e-5
1.120,   1.347e-5
1.121,   1.325e-5
1.122,   1.303e-5
1.123,   1.285e-5
1.124,   1.263e-5
1.125,   1.246e-5
1.126,   1.232e-5
1.127,   1.218e-5
1.128,   1.207e-5
1.129,   1.192e-5
1.130,   1.175e-5
1.131,   1.165e-5
1.132,   1.152e-5
1.133,   1.148e-5
1.134,   1.143e-5
1.135,   1.134e-5
1.136,   1.119e-5
1.137,   1.107e-5
1.138,   1.101e-5
1.139,   1.094e-5
1.140,   1.085e-5
1.141,   1.081e-5
1.142,   1.077e-5
1.143,   1.072e-5
1.144,   1.067e-5
1.145,   1.062e-5
1.146,   1.058e-5
1.147,   1.055e-5
1.148,   1.048e-5
1.149,   1.046e-5
1.150,   1.043e-5
1.151,   1.040e-5
1.152,   1.037e-5
1.153,   1.033e-5
1.154,   1.031e-5
1.155,   1.032e-5
1.156,   1.030e-5
1.157,   1.030e-5
1.158,   1.027e-5
1.159,   1.025e-5
1.160,   1.023e-5
1.161,   1.023e-5
1.162,   1.018e-5
1.163,   1.019e-5
1.164,   1.018e-5
1.165,   1.020e-5
1.166,   1.018e-5
1.167,   1.018e-5
1.168,   1.019e-5
1.169,   1.018e-5
1.170,   1.016e-5
1.171,   1.019e-5
1.172,   1.018e-5
1.173,   1.018e-5
1.174,   1.020e-5
1.175,   1.015e-5
1.176,   1.020e-5
1.177,   1.021e-5
1.178,   1.021e-5
1.179,   1.021e-5
1.180,   1.019e-5
1.181,   1.021e-5
1.182,   1.022e-5
1.183,   1.022e-5
1.184,   1.025e-5
1.185,   1.026e-5
1.186,   1.027e-5
1.187,   1.030e-5
1.188,   1.032e-5
1.189,   1.034e-5
1.190,   1.037e-5
1.191,   1.036e-5
1.192,   1.038e-5
1.193,   1.038e-5
1.194,   1.040e-5
1.195,   1.044e-5
1.196,   1.043e-5
1.197,   1.048e-5
1.198,   1.051e-5
1.199,   1.052e-5
1.200,   1.053e-5
1.201,   1.057e-5
1.202,   1.055e-5
1.203,   1.061e-5
1.204,   1.065e-5
1.205,   1.066e-5
1.206,   1.071e-5
1.207,   1.069e-5
1.208,   1.071e-5
1.209,   1.073e-5
1.210,   1.078e-5
1.211,   1.082e-5
1.212,   1.081e-5
1.213,   1.082e-5
1.214,   1.088e-5
1.215,   1.090e-5
1.216,   1.093e-5
1.217,   1.096e-5
1.218,   1.097e-5
1.219,   1.102e-5
1.220,   1.103e-5
1.221,   1.112e-5
1.222,   1.112e-5
1.223,   1.113e-5
1.224,   1.119e-5
1.225,   1.120e-5
1.226,   1.120e-5
1.227,   1.126e-5
1.228,   1.130e-5
1.229,   1.134e-5
1.230,   1.139e-5
1.231,   1.139e-5
1.232,   1.145e-5
1.233,   1.145e-5
1.234,   1.147e-5
1.235,   1.153e-5
1.236,   1.158e-5
1.237,   1.159e-5
1.238,   1.165e-5
1.239,   1.168e-5
1.240,   1.173e-5
1.241,   1.177e-5
1.242,   1.180e-5
1.243,   1.184e-5
1.244,   1.184e-5
1.245,   1.189e-5
1.246,   1.191e-5
1.247,   1.193e-5
1.248,   1.201e-5
1.249,   1.203e-5
1.250,   1.205e-5
1.251,   1.212e-5
1.252,   1.213e-5
1.253,   1.216e-5
1.254,   1.219e-5
1.255,   1.221e-5
1.256,   1.226e-5
1.257,   1.230e-5
1.258,   1.232e-5
1.259,   1.238e-5
1.260,   1.239e-5
1.261,   1.247e-5
1.262,   1.251e-5
1.263,   1.255e-5
1.264,   1.259e-5
1.265,   1.260e-5
1.266,   1.264e-5
1.267,   1.267e-5
1.268,   1.268e-5
1.269,   1.273e-5
1.270,   1.280e-5
1.271,   1.281e-5
1.272,   1.285e-5
1.273,   1.288e-5
1.274,   1.292e-5
1.275,   1.299e-5
1.276,   1.300e-5
1.277,   1.304e-5
1.278,   1.309e-5
1.279,   1.309e-5
1.280,   1.315e-5
1.281,   1.317e-5
1.282,   1.321e-5
1.283,   1.326e-5
1.284,   1.329e-5
1.285,   1.335e-5
1.286,   1.340e-5
1.287,   1.342e-5
1.288,   1.346e-5
1.289,   1.348e-5
1.290,   1.354e-5
1.291,   1.359e-5
1.292,   1.359e-5
1.293,   1.365e-5
1.294,   1.370e-5
1.295,   1.372e-5
1.296,   1.377e-5
1.297,   1.383e-5
1.298,   1.385e-5
1.299,   1.390e-5
1.300,   1.395e-5
1.301,   1.400e-5
1.302,   1.406e-5
1.303,   1.407e-5
1.304,   1.413e-5
1.305,   1.416e-5
1.306,   1.420e-5
1.307,   1.427e-5
1.308,   1.431e-5
1.309,   1.437e-5
1.310,   1.440e-5
1.311,   1.444e-5
1.312,   1.450e-5
1.313,   1.456e-5
1.314,   1.461e-5
1.315,   1.466e-5
1.316,   1.471e-5
1.317,   1.476e-5
1.318,   1.482e-5
1.319,   1.489e-5
1.320,   1.495e-5
1.321,   1.498e-5
1.322,   1.503e-5
1.323,   1.510e-5
1.324,   1.518e-5
1.325,   1.527e-5
1.326,   1.533e-5
1.327,   1.534e-5
1.328,   1.542e-5
1.329,   1.546e-5
1.330,   1.554e-5
1.331,   1.563e-5
1.332,   1.567e-5
1.333,   1.575e-5
1.334,   1.584e-5
1.335,   1.592e-5
1.336,   1.600e-5
1.337,   1.609e-5
1.338,   1.620e-5
1.339,   1.626e-5
1.340,   1.631e-5
1.341,   1.639e-5
1.342,   1.651e-5
1.343,   1.659e-5
1.344,   1.668e-5
1.345,   1.677e-5
1.346,   1.683e-5
1.347,   1.693e-5
1.348,   1.706e-5
1.349,   1.718e-5
1.350,   1.728e-5
1.351,   1.739e-5
1.352,   1.750e-5
1.353,   1.763e-5
1.354,   1.769e-5
1.355,   1.786e-5
1.356,   1.797e-5
1.357,   1.810e-5
1.358,   1.827e-5
1.359,   1.838e-5
1.360,   1.852e-5
1.361,   1.865e-5
1.362,   1.879e-5
1.363,   1.894e-5
1.364,   1.908e-5
1.365,   1.922e-5
1.366,   1.940e-5
1.367,   1.955e-5
1.368,   1.973e-5
1.369,   1.988e-5
1.370,   2.006e-5
1.371,   2.028e-5
1.372,   2.045e-5
1.373,   2.064e-5
1.374,   2.087e-5
1.375,   2.101e-5
1.376,   2.124e-5
1.377,   2.146e-5
1.378,   2.165e-5
1.379,   2.189e-5
1.380,   2.210e-5
1.381,   2.236e-5
1.382,   2.260e-5
1.383,   2.283e-5
1.384,   2.311e-5
1.385,   2.333e-5
1.386,   2.358e-5
1.387,   2.387e-5
1.388,   2.414e-5
1.389,   2.445e-5
1.390,   2.475e-5
1.391,   2.503e-5
1.392,   2.537e-5
1.393,   2.568e-5
1.394,   2.600e-5
1.395,   2.637e-5
1.396,   2.674e-5
1.397,   2.710e-5
1.398,   2.747e-5
1.399,   2.783e-5
1.400,   2.828e-5
1.401,   2.868e-5
1.402,   2.914e-5
1.403,   2.961e-5
1.404,   3.007e-5
1.405,   3.060e-5
1.406,   3.114e-5
1.407,   3.165e-5
1.408,   3.221e-5
1.409,   3.282e-5
1.410,   3.343e-5
1.411,   3.407e-5
1.412,   3.474e-5
1.413,   3.541e-5
1.414,   3.610e-5
1.415,   3.687e-5
1.416,   3.758e-5
1.417,   3.833e-5
1.418,   3.917e-5
1.419,   4.006e-5
1.420,   4.098e-5
1.421,   4.196e-5
1.422,   4.299e-5
1.423,   4.405e-5
1.424,   4.514e-5
1.425,   4.631e-5
1.426,   4.759e-5
1.427,   4.887e-5
1.428,   5.017e-5
1.429,   5.156e-5
1.430,   5.301e-5
1.431,   5.450e-5
1.432,   5.606e-5
1.433,   5.771e-5
1.434,   5.940e-5
1.435,   6.122e-5
1.436,   6.306e-5
1.437,   6.507e-5
1.438,   6.714e-5
1.439,   6.931e-5
1.440,   7.158e-5
1.441,   7.394e-5
1.442,   7.644e-5
1.443,   7.899e-5
1.444,   8.161e-5
1.445,   8.443e-5
1.446,   8.734e-5
1.447,   9.036e-5
1.448,   9.346e-5
1.449,   9.671e-5
1.450,   1.001e-4
1.451,   1.037e-4
1.452,   1.073e-4
1.453,   1.112e-4
1.454,   1.153e-4
1.455,   1.194e-4
1.456,   1.237e-4
1.457,   1.281e-4
1.458,   1.327e-4
1.459,   1.375e-4
1.460,   1.425e-4
1.461,   1.477e-4
1.462,   1.530e-4
1.463,   1.587e-4
1.464,   1.645e-4
1.465,   1.705e-4
1.466,   1.766e-4
1.467,   1.831e-4
1.468,   1.897e-4
1.469,   1.964e-4
1.470,   2.035e-4
1.471,   2.110e-4
1.472,   2.187e-4
1.473,   2.267e-4
1.474,   2.350e-4
1.475,   2.434e-4
1.476,   2.520e-4
1.477,   2.609e-4
1.478,   2.702e-4
1.479,   2.798e-4
1.480,   2.897e-4
1.481,   2.999e-4
1.482,   3.104e-4
1.483,   3.213e-4
1.484,   3.323e-4
1.485,   3.442e-4
1.486,   3.563e-4
1.487,   3.686e-4
1.488,   3.814e-4
1.489,   3.944e-4
1.490,   4.077e-4
1.491,   4.211e-4
1.492,   4.352e-4
1.493,   4.495e-4
1.494,   4.640e-4
1.495,   4.793e-4
1.496,   4.948e-4
1.497,   5.105e-4
1.498,   5.266e-4
1.499,   5.432e-4
1.500,   5.602e-4
1.501,   5.775e-4
1.502,   5.961e-4
1.503,   6.150e-4
1.504,   6.342e-4
1.505,   6.534e-4
1.506,   6.728e-4
1.507,   6.925e-4
1.508,   7.128e-4
1.509,   7.338e-4
1.510,   7.552e-4
1.511,   7.769e-4
1.512,   7.989e-4
1.513,   8.213e-4
1.514,   8.446e-4
1.515,   8.678e-4
1.516,   8.913e-4
1.517,   9.154e-4
1.518,   9.397e-4
1.519,   9.644e-4
1.520,   9.899e-4
1.521,   1.015e-3
1.522,   1.042e-3
1.523,   1.068e-3
1.524,   1.095e-3
1.525,   1.122e-3
1.526,   1.149e-3
1.527,   1.177e-3
1.528,   1.205e-3
1.529,   1.233e-3
1.530,   1.261e-3
1.531,   1.290e-3
1.532,   1.322e-3
1.533,   1.352e-3
1.534,   1.386e-3
1.535,   1.420e-3
1.536,   1.453e-3
1.537,   1.485e-3
1.538,   1.518e-3
1.539,   1.551e-3
1.540,   1.584e-3
1.541,   1.617e-3
1.542,   1.651e-3
1.543,   1.685e-3
1.544,   1.719e-3
1.545,   1.754e-3
1.546,   1.789e-3
1.547,   1.824e-3
1.548,   1.859e-3
1.549,   1.896e-3
1.550,   1.932e-3
1.551,   1.966e-3
1.552,   2.007e-3
1.553,   2.051e-3
1.554,   2.090e-3
1.555,   2.129e-3
1.556,   2.166e-3
1.557,   2.205e-3
1.558,   2.244e-3
1.559,   2.286e-3
1.560,   2.327e-3
1.561,   2.367e-3
1.562,   2.408e-3
1.563,   2.447e-3
1.564,   2.487e-3
1.565,   2.528e-3
1.566,   2.569e-3
1.567,   2.611e-3
1.568,   2.652e-3
1.569,   2.693e-3
1.570,   2.734e-3
1.571,   2.774e-3
1.572,   2.818e-3
1.573,   2.859e-3
1.574,   2.902e-3
1.575,   2.944e-3
1.576,   2.991e-3
1.577,   3.036e-3
1.578,   3.081e-3
1.579,   3.125e-3
1.580,   3.169e-3
1.581,   3.213e-3
1.582,   3.258e-3
1.583,   3.306e-3
1.584,   3.353e-3
1.585,   3.400e-3
1.586,   3.447e-3
1.587,   3.499e-3
1.588,   3.548e-3
1.589,   3.597e-3
1.590,   3.642e-3
1.591,   3.688e-3
1.592,   3.734e-3
1.593,   3.779e-3
1.594,   3.843e-3
1.595,   3.896e-3
1.596,   3.941e-3
1.597,   3.989e-3
1.598,   4.043e-3
1.599,   4.093e-3
1.600,   4.140e-3
1.601,   4.186e-3
1.602,   4.233e-3
1.603,   4.285e-3
1.604,   4.334e-3
1.605,   4.380e-3
1.606,   4.432e-3
1.607,   4.482e-3
1.608,   4.552e-3
1.609,   4.613e-3
1.610,   4.663e-3
1.611,   4.711e-3
1.612,   4.758e-3
1.613,   4.806e-3
1.614,   4.855e-3
1.615,   4.904e-3
1.616,   4.967e-3
1.617,   5.021e-3
1.618,   5.073e-3
1.619,   5.119e-3
1.620,   5.163e-3
1.621,   5.208e-3
1.622,   5.264e-3
1.623,   5.316e-3
1.624,   5.380e-3
1.625,   5.438e-3
1.626,   5.505e-3
1.627,   5.560e-3
1.628,   5.607e-3
1.629,   5.653e-3
1.630,   5.712e-3
1.631,   5.759e-3
1.632,   5.804e-3
1.633,   5.855e-3
1.634,   5.901e-3
1.635,   5.944e-3
1.636,   5.996e-3
1.637,   6.065e-3
1.638,   6.117e-3
1.639,   6.165e-3
1.640,   6.216e-3
1.641,   6.270e-3
1.642,   6.343e-3
1.643,   6.392e-3
1.644,   6.440e-3
1.645,   6.491e-3
1.646,   6.532e-3
1.647,   6.583e-3
1.648,   6.628e-3
1.649,   6.669e-3
1.650,   6.748e-3
1.651,   6.800e-3
1.652,   6.841e-3
1.653,   6.886e-3
1.654,   6.941e-3
1.655,   6.995e-3
1.656,   7.045e-3
1.657,   7.111e-3
1.658,   7.145e-3
1.659,   7.188e-3
1.660,   7.223e-3
1.661,   7.256e-3
1.662,   7.341e-3
1.663,   7.400e-3
1.664,   7.457e-3
1.665,   7.506e-3
1.666,   7.537e-3
1.667,   7.581e-3
1.668,   7.617e-3
1.669,   7.816e-3
1.670,   8.564e-3
1.671,   8.703e-3
1.672,   8.706e-3
1.673,   8.710e-3
1.674,   8.716e-3
1.675,   8.718e-3
1.676,   8.729e-3
1.677,   8.764e-3
1.678,   8.802e-3
1.679,   8.840e-3
1.680,   8.846e-3
1.681,   8.864e-3
1.682,   8.872e-3
1.683,   9.048e-3
1.684,   9.174e-3
1.685,   9.214e-3
1.686,   9.211e-3
1.687,   9.217e-3
1.688,   9.222e-3
1.689,   9.276e-3
1.690,   9.305e-3
1.691,   9.340e-3
1.692,   9.362e-3
1.693,   9.401e-3
1.694,   9.431e-3
1.695,   9.450e-3
1.696,   9.459e-3
1.697,   9.572e-3
1.698,   9.635e-3
1.699,   9.636e-3
1.700,   9.624e-3
1.701,   9.625e-3
1.702,   9.646e-3
1.703,   9.643e-3
1.704,   9.666e-3
1.705,   9.715e-3
1.706,   9.751e-3
1.707,   9.769e-3
1.708,   9.805e-3
1.709,   9.857e-3
1.710,   9.911e-3
1.711,   9.955e-3
1.712,   1.000e-2
1.713,   1.003e-2
1.714,   1.004e-2
1.715,   1.006e-2
1.716,   1.006e-2
1.717,   1.006e-2
1.718,   1.006e-2
1.719,   1.006e-2
1.720,   1.006e-2
1.721,   1.006e-2
1.722,   1.006e-2
1.723,   1.006e-2
1.724,   1.006e-2
1.725,   1.006e-2
1.726,   1.006e-2
1.727,   1.006e-2
1.728,   1.006e-2
1.729,   1.006e-2
1.730,   1.006e-2
1.731,   1.006e-2
1.732,   1.006e-2
1.733,   1.006e-2
1.734,   1.006e-2
1.735,   1.006e-2
1.736,   1.006e-2
1.737,   1.006e-2
1.738,   1.006e-2
1.739,   1.006e-2
1.740,   1.006e-2
1.741,   1.006e-2
1.742,   1.006e-2
1.743,   1.006e-2
1.744,   1.006e-2
1.745,   1.006e-2
1.746,   1.006e-2
1.747,   1.006e-2
1.748,   1.006e-2
1.749,   1.006e-2
1.750,   1.006e-2
1.751,   1.006e-2
1.752,   1.006e-2
1.753,   1.006e-2
1.754,   1.006e-2
1.755,   1.006e-2
1.756,   1.006e-2
1.757,   1.006e-2
1.758,   1.006e-2
1.759,   1.006e-2
1.760,   1.006e-2
1.761,   1.006e-2
1.762,   1.006e-2
1.763,   1.006e-2
1.764,   1.006e-2
1.765,   1.006e-2
1.766,   1.006e-2
1.767,   1.006e-2
1.768,   1.006e-2
1.769,   1.006e-2
1.770,   1.006e-2
1.771,   1.006e-2
1.772,   1.006e-2
1.773,   1.006e-2
1.774,   1.006e-2
1.775,   1.006e-2
1.776,   1.006e-2
1.777,   1.006e-2
1.778,   1.006e-2
1.779,   1.006e-2
1.780,   1.006e-2
1.781,   1.006e-2
1.782,   1.006e-2
1.783,   1.006e-2
1.784,   1.006e-2
1.785,   1.006e-2
1.786,   1.006e-2
1.787,   1.006e-2
1.788,   1.006e-2
1.789,   1.006e-2
1.790,   1.006e-2
1.791,   1.006e-2
1.792,   1.006e-2
1.793,   1.006e-2
1.794,   1.006e-2
1.795,   1.006e-2
1.796,   1.006e-2
1.797,   1.006e-2
1.798,   1.006e-2
1.799,   1.006e-2