File: Experimental Records, Raw Data, and Supplementary Notes and Figures/batch2/final500/B2_VARIANCE_500#8_High_Quality-295mV.txt
Jan. 18, 2023   16:42:43
Linear Sweep Voltammetry
File: d:\current work\al_oer\electrochemical test data\batch 2\500\B2_VARIANCE_500#8_High_Quality-295mV.txt
Data Source:  Experiment
Instrument Model:  CHI660E
Header:
Note:

Init E (V) = 1.099

Final E (V) = 1.698

Scan Rate (V/s) = 0.010
Sample Interval (V) = 0.001
Quiet Time (sec) = 2
Sensitivity (A/V) = 0.001
Comp R (ohm) = 5.1

Results:

Channel 1:

Potential/V, Current/A
1.099,   5.123e-5
1.100,   5.142e-5
1.101,   4.902e-5
1.102,   4.660e-5
1.103,   4.447e-5
1.104,   4.256e-5
1.105,   4.081e-5
1.106,   3.929e-5
1.107,   3.797e-5
1.108,   3.675e-5
1.109,   3.559e-5
1.110,   3.456e-5
1.111,   3.368e-5
1.112,   3.279e-5
1.113,   3.204e-5
1.114,   3.138e-5
1.115,   3.066e-5
1.116,   3.013e-5
1.117,   2.960e-5
1.118,   2.896e-5
1.119,   2.858e-5
1.120,   2.813e-5
1.121,   2.764e-5
1.122,   2.739e-5
1.123,   2.697e-5
1.124,   2.658e-5
1.125,   2.635e-5
1.126,   2.601e-5
1.127,   2.575e-5
1.128,   2.551e-5
1.129,   2.520e-5
1.130,   2.501e-5
1.131,   2.483e-5
1.132,   2.460e-5
1.133,   2.441e-5
1.134,   2.421e-5
1.135,   2.409e-5
1.136,   2.393e-5
1.137,   2.383e-5
1.138,   2.369e-5
1.139,   2.351e-5
1.140,   2.341e-5
1.141,   2.328e-5
1.142,   2.315e-5
1.143,   2.309e-5
1.144,   2.291e-5
1.145,   2.288e-5
1.146,   2.287e-5
1.147,   2.270e-5
1.148,   2.263e-5
1.149,   2.261e-5
1.150,   2.246e-5
1.151,   2.248e-5
1.152,   2.240e-5
1.153,   2.229e-5
1.154,   2.233e-5
1.155,   2.227e-5
1.156,   2.223e-5
1.157,   2.221e-5
1.158,   2.212e-5
1.159,   2.208e-5
1.160,   2.209e-5
1.161,   2.203e-5
1.162,   2.205e-5
1.163,   2.198e-5
1.164,   2.201e-5
1.165,   2.198e-5
1.166,   2.193e-5
1.167,   2.198e-5
1.168,   2.192e-5
1.169,   2.200e-5
1.170,   2.192e-5
1.171,   2.196e-5
1.172,   2.200e-5
1.173,   2.198e-5
1.174,   2.189e-5
1.175,   2.203e-5
1.176,   2.195e-5
1.177,   2.191e-5
1.178,   2.201e-5
1.179,   2.197e-5
1.180,   2.201e-5
1.181,   2.205e-5
1.182,   2.199e-5
1.183,   2.209e-5
1.184,   2.210e-5
1.185,   2.201e-5
1.186,   2.211e-5
1.187,   2.214e-5
1.188,   2.209e-5
1.189,   2.220e-5
1.190,   2.219e-5
1.191,   2.220e-5
1.192,   2.227e-5
1.193,   2.224e-5
1.194,   2.230e-5
1.195,   2.236e-5
1.196,   2.240e-5
1.197,   2.242e-5
1.198,   2.245e-5
1.199,   2.250e-5
1.200,   2.246e-5
1.201,   2.257e-5
1.202,   2.261e-5
1.203,   2.253e-5
1.204,   2.266e-5
1.205,   2.274e-5
1.206,   2.267e-5
1.207,   2.282e-5
1.208,   2.275e-5
1.209,   2.280e-5
1.210,   2.289e-5
1.211,   2.284e-5
1.212,   2.289e-5
1.213,   2.303e-5
1.214,   2.302e-5
1.215,   2.310e-5
1.216,   2.312e-5
1.217,   2.304e-5
1.218,   2.317e-5
1.219,   2.322e-5
1.220,   2.319e-5
1.221,   2.332e-5
1.222,   2.347e-5
1.223,   2.342e-5
1.224,   2.347e-5
1.225,   2.344e-5
1.226,   2.351e-5
1.227,   2.357e-5
1.228,   2.362e-5
1.229,   2.360e-5
1.230,   2.362e-5
1.231,   2.376e-5
1.232,   2.371e-5
1.233,   2.383e-5
1.234,   2.384e-5
1.235,   2.381e-5
1.236,   2.393e-5
1.237,   2.395e-5
1.238,   2.392e-5
1.239,   2.407e-5
1.240,   2.407e-5
1.241,   2.408e-5
1.242,   2.418e-5
1.243,   2.412e-5
1.244,   2.416e-5
1.245,   2.426e-5
1.246,   2.423e-5
1.247,   2.433e-5
1.248,   2.439e-5
1.249,   2.427e-5
1.250,   2.443e-5
1.251,   2.441e-5
1.252,   2.442e-5
1.253,   2.453e-5
1.254,   2.456e-5
1.255,   2.449e-5
1.256,   2.456e-5
1.257,   2.461e-5
1.258,   2.467e-5
1.259,   2.470e-5
1.260,   2.473e-5
1.261,   2.477e-5
1.262,   2.474e-5
1.263,   2.485e-5
1.264,   2.482e-5
1.265,   2.487e-5
1.266,   2.498e-5
1.267,   2.486e-5
1.268,   2.497e-5
1.269,   2.506e-5
1.270,   2.500e-5
1.271,   2.513e-5
1.272,   2.512e-5
1.273,   2.508e-5
1.274,   2.526e-5
1.275,   2.517e-5
1.276,   2.519e-5
1.277,   2.535e-5
1.278,   2.526e-5
1.279,   2.531e-5
1.280,   2.538e-5
1.281,   2.541e-5
1.282,   2.546e-5
1.283,   2.547e-5
1.284,   2.546e-5
1.285,   2.553e-5
1.286,   2.559e-5
1.287,   2.557e-5
1.288,   2.557e-5
1.289,   2.569e-5
1.290,   2.569e-5
1.291,   2.570e-5
1.292,   2.580e-5
1.293,   2.576e-5
1.294,   2.574e-5
1.295,   2.592e-5
1.296,   2.590e-5
1.297,   2.593e-5
1.298,   2.601e-5
1.299,   2.597e-5
1.300,   2.611e-5
1.301,   2.617e-5
1.302,   2.609e-5
1.303,   2.620e-5
1.304,   2.624e-5
1.305,   2.619e-5
1.306,   2.635e-5
1.307,   2.628e-5
1.308,   2.635e-5
1.309,   2.650e-5
1.310,   2.639e-5
1.311,   2.652e-5
1.312,   2.666e-5
1.313,   2.661e-5
1.314,   2.669e-5
1.315,   2.675e-5
1.316,   2.679e-5
1.317,   2.681e-5
1.318,   2.692e-5
1.319,   2.696e-5
1.320,   2.700e-5
1.321,   2.707e-5
1.322,   2.716e-5
1.323,   2.717e-5
1.324,   2.738e-5
1.325,   2.744e-5
1.326,   2.745e-5
1.327,   2.759e-5
1.328,   2.759e-5
1.329,   2.763e-5
1.330,   2.780e-5
1.331,   2.781e-5
1.332,   2.794e-5
1.333,   2.808e-5
1.334,   2.803e-5
1.335,   2.821e-5
1.336,   2.831e-5
1.337,   2.834e-5
1.338,   2.852e-5
1.339,   2.858e-5
1.340,   2.867e-5
1.341,   2.886e-5
1.342,   2.885e-5
1.343,   2.901e-5
1.344,   2.920e-5
1.345,   2.932e-5
1.346,   2.946e-5
1.347,   2.956e-5
1.348,   2.969e-5
1.349,   2.979e-5
1.350,   2.991e-5
1.351,   3.007e-5
1.352,   3.020e-5
1.353,   3.032e-5
1.354,   3.052e-5
1.355,   3.059e-5
1.356,   3.082e-5
1.357,   3.101e-5
1.358,   3.114e-5
1.359,   3.134e-5
1.360,   3.148e-5
1.361,   3.165e-5
1.362,   3.190e-5
1.363,   3.203e-5
1.364,   3.226e-5
1.365,   3.254e-5
1.366,   3.261e-5
1.367,   3.284e-5
1.368,   3.311e-5
1.369,   3.320e-5
1.370,   3.356e-5
1.371,   3.376e-5
1.372,   3.395e-5
1.373,   3.431e-5
1.374,   3.457e-5
1.375,   3.480e-5
1.376,   3.512e-5
1.377,   3.539e-5
1.378,   3.567e-5
1.379,   3.603e-5
1.380,   3.632e-5
1.381,   3.663e-5
1.382,   3.698e-5
1.383,   3.734e-5
1.384,   3.757e-5
1.385,   3.789e-5
1.386,   3.838e-5
1.387,   3.861e-5
1.388,   3.911e-5
1.389,   3.961e-5
1.390,   3.988e-5
1.391,   4.043e-5
1.392,   4.088e-5
1.393,   4.125e-5
1.394,   4.187e-5
1.395,   4.226e-5
1.396,   4.273e-5
1.397,   4.336e-5
1.398,   4.384e-5
1.399,   4.444e-5
1.400,   4.510e-5
1.401,   4.574e-5
1.402,   4.641e-5
1.403,   4.705e-5
1.404,   4.773e-5
1.405,   4.851e-5
1.406,   4.928e-5
1.407,   5.016e-5
1.408,   5.096e-5
1.409,   5.188e-5
1.410,   5.281e-5
1.411,   5.370e-5
1.412,   5.480e-5
1.413,   5.578e-5
1.414,   5.682e-5
1.415,   5.808e-5
1.416,   5.921e-5
1.417,   6.049e-5
1.418,   6.191e-5
1.419,   6.319e-5
1.420,   6.461e-5
1.421,   6.622e-5
1.422,   6.766e-5
1.423,   6.938e-5
1.424,   7.119e-5
1.425,   7.292e-5
1.426,   7.495e-5
1.427,   7.710e-5
1.428,   7.904e-5
1.429,   8.134e-5
1.430,   8.346e-5
1.431,   8.586e-5
1.432,   8.842e-5
1.433,   9.093e-5
1.434,   9.364e-5
1.435,   9.654e-5
1.436,   9.955e-5
1.437,   1.026e-4
1.438,   1.059e-4
1.439,   1.093e-4
1.440,   1.129e-4
1.441,   1.166e-4
1.442,   1.206e-4
1.443,   1.244e-4
1.444,   1.288e-4
1.445,   1.332e-4
1.446,   1.377e-4
1.447,   1.426e-4
1.448,   1.475e-4
1.449,   1.527e-4
1.450,   1.583e-4
1.451,   1.638e-4
1.452,   1.698e-4
1.453,   1.759e-4
1.454,   1.822e-4
1.455,   1.889e-4
1.456,   1.958e-4
1.457,   2.029e-4
1.458,   2.105e-4
1.459,   2.182e-4
1.460,   2.262e-4
1.461,   2.347e-4
1.462,   2.433e-4
1.463,   2.523e-4
1.464,   2.615e-4
1.465,   2.715e-4
1.466,   2.815e-4
1.467,   2.923e-4
1.468,   3.034e-4
1.469,   3.145e-4
1.470,   3.262e-4
1.471,   3.383e-4
1.472,   3.509e-4
1.473,   3.640e-4
1.474,   3.775e-4
1.475,   3.913e-4
1.476,   4.059e-4
1.477,   4.209e-4
1.478,   4.361e-4
1.479,   4.521e-4
1.480,   4.688e-4
1.481,   4.855e-4
1.482,   5.030e-4
1.483,   5.208e-4
1.484,   5.391e-4
1.485,   5.582e-4
1.486,   5.785e-4
1.487,   5.992e-4
1.488,   6.200e-4
1.489,   6.418e-4
1.490,   6.644e-4
1.491,   6.870e-4
1.492,   7.103e-4
1.493,   7.343e-4
1.494,   7.591e-4
1.495,   7.849e-4
1.496,   8.106e-4
1.497,   8.374e-4
1.498,   8.654e-4
1.499,   8.938e-4
1.500,   9.230e-4
1.501,   9.522e-4
1.502,   9.829e-4
1.503,   1.014e-3
1.504,   1.046e-3
1.505,   1.079e-3
1.506,   1.112e-3
1.507,   1.146e-3
1.508,   1.182e-3
1.509,   1.217e-3
1.510,   1.254e-3
1.511,   1.292e-3
1.512,   1.330e-3
1.513,   1.369e-3
1.514,   1.409e-3
1.515,   1.449e-3
1.516,   1.489e-3
1.517,   1.531e-3
1.518,   1.574e-3
1.519,   1.616e-3
1.520,   1.659e-3
1.521,   1.703e-3
1.522,   1.750e-3
1.523,   1.797e-3
1.524,   1.844e-3
1.525,   1.893e-3
1.526,   1.942e-3
1.527,   1.991e-3
1.528,   2.040e-3
1.529,   2.090e-3
1.530,   2.142e-3
1.531,   2.195e-3
1.532,   2.247e-3
1.533,   2.301e-3
1.534,   2.352e-3
1.535,   2.405e-3
1.536,   2.462e-3
1.537,   2.519e-3
1.538,   2.577e-3
1.539,   2.632e-3
1.540,   2.688e-3
1.541,   2.745e-3
1.542,   2.819e-3
1.543,   2.895e-3
1.544,   2.964e-3
1.545,   3.028e-3
1.546,   3.095e-3
1.547,   3.163e-3
1.548,   3.234e-3
1.549,   3.299e-3
1.550,   3.365e-3
1.551,   3.435e-3
1.552,   3.506e-3
1.553,   3.578e-3
1.554,   3.643e-3
1.555,   3.707e-3
1.556,   3.782e-3
1.557,   3.857e-3
1.558,   3.929e-3
1.559,   4.003e-3
1.560,   4.076e-3
1.561,   4.148e-3
1.562,   4.231e-3
1.563,   4.308e-3
1.564,   4.380e-3
1.565,   4.455e-3
1.566,   4.531e-3
1.567,   4.612e-3
1.568,   4.707e-3
1.569,   4.795e-3
1.570,   4.884e-3
1.571,   4.965e-3
1.572,   5.060e-3
1.573,   5.153e-3
1.574,   5.244e-3
1.575,   5.325e-3
1.576,   5.413e-3
1.577,   5.496e-3
1.578,   5.597e-3
1.579,   5.690e-3
1.580,   5.776e-3
1.581,   5.868e-3
1.582,   5.941e-3
1.583,   6.025e-3
1.584,   6.137e-3
1.585,   6.241e-3
1.586,   6.358e-3
1.587,   6.446e-3
1.588,   6.533e-3
1.589,   6.632e-3
1.590,   6.751e-3
1.591,   6.856e-3
1.592,   6.939e-3
1.593,   7.051e-3
1.594,   7.141e-3
1.595,   7.255e-3
1.596,   7.374e-3
1.597,   7.440e-3
1.598,   7.548e-3
1.599,   7.691e-3
1.600,   7.822e-3
1.601,   7.935e-3
1.602,   8.009e-3
1.603,   8.135e-3
1.604,   8.253e-3
1.605,   8.343e-3
1.606,   8.454e-3
1.607,   8.550e-3
1.608,   8.674e-3
1.609,   8.822e-3
1.610,   8.943e-3
1.611,   9.097e-3
1.612,   9.187e-3
1.613,   9.300e-3
1.614,   9.430e-3
1.615,   9.510e-3
1.616,   9.616e-3
1.617,   9.750e-3
1.618,   9.941e-3
1.619,   1.001e-2
1.620,   1.007e-2
1.621,   1.007e-2
1.622,   1.007e-2
1.623,   1.007e-2
1.624,   1.007e-2
1.625,   1.007e-2
1.626,   1.007e-2
1.627,   1.007e-2
1.628,   1.007e-2
1.629,   1.007e-2
1.630,   1.007e-2
1.631,   1.007e-2
1.632,   1.007e-2
1.633,   1.007e-2
1.634,   1.007e-2
1.635,   1.007e-2
1.636,   1.007e-2
1.637,   1.007e-2
1.638,   1.007e-2
1.639,   1.007e-2
1.640,   1.007e-2
1.641,   1.007e-2
1.642,   1.007e-2
1.643,   1.007e-2
1.644,   1.007e-2
1.645,   1.007e-2
1.646,   1.007e-2
1.647,   1.007e-2
1.648,   1.007e-2
1.649,   1.007e-2
1.650,   1.007e-2
1.651,   1.007e-2
1.652,   1.007e-2
1.653,   1.007e-2
1.654,   1.007e-2
1.655,   1.007e-2
1.656,   1.007e-2
1.657,   1.007e-2
1.658,   1.007e-2
1.659,   1.007e-2
1.660,   1.007e-2
1.661,   1.007e-2
1.662,   1.007e-2
1.663,   1.007e-2
1.664,   1.007e-2
1.665,   1.007e-2
1.666,   1.007e-2
1.667,   1.007e-2
1.668,   1.007e-2
1.669,   1.007e-2
1.670,   1.007e-2
1.671,   1.007e-2
1.672,   1.007e-2
1.673,   1.007e-2
1.674,   1.007e-2
1.675,   1.007e-2
1.676,   1.007e-2
1.677,   1.007e-2
1.678,   1.007e-2
1.679,   1.007e-2
1.680,   1.007e-2
1.681,   1.007e-2
1.682,   1.007e-2
1.683,   1.007e-2
1.684,   1.007e-2
1.685,   1.007e-2
1.686,   1.007e-2
1.687,   1.007e-2
1.688,   1.007e-2
1.689,   1.007e-2
1.690,   1.007e-2
1.691,   1.007e-2
1.692,   1.007e-2
1.693,   1.007e-2
1.694,   1.007e-2
1.695,   1.007e-2
1.696,   1.007e-2
1.697,   1.007e-2
1.698,   1.007e-2