File: Experimental Records, Raw Data, and Supplementary Notes and Figures/batch2/final500/B2_VARIANCE_500#18_High_Quality-337mV.txt
Jan. 19, 2023   14:22:09
Linear Sweep Voltammetry
File: d:\current work\al_oer\electrochemical test data\batch 2\500\B2_VARIANCE_500#18_High_Quality-337mV.txt
Data Source:  Experiment
Instrument Model:  CHI660E
Header:
Note:

Init E (V) = 1.099

Final E (V) = 1.798

Scan Rate (V/s) = 0.010
Sample Interval (V) = 0.001
Quiet Time (sec) = 2
Sensitivity (A/V) = 0.001
Comp R (ohm) = 5.5

Results:

Channel 1:

Potential/V, Current/A
1.099,   2.298e-5
1.100,   2.256e-5
1.101,   2.144e-5
1.102,   2.035e-5
1.103,   1.941e-5
1.104,   1.858e-5
1.105,   1.780e-5
1.106,   1.716e-5
1.107,   1.654e-5
1.108,   1.601e-5
1.109,   1.549e-5
1.110,   1.505e-5
1.111,   1.463e-5
1.112,   1.424e-5
1.113,   1.392e-5
1.114,   1.360e-5
1.115,   1.328e-5
1.116,   1.305e-5
1.117,   1.281e-5
1.118,   1.254e-5
1.119,   1.238e-5
1.120,   1.216e-5
1.121,   1.194e-5
1.122,   1.179e-5
1.123,   1.163e-5
1.124,   1.149e-5
1.125,   1.135e-5
1.126,   1.121e-5
1.127,   1.108e-5
1.128,   1.096e-5
1.129,   1.084e-5
1.130,   1.078e-5
1.131,   1.067e-5
1.132,   1.060e-5
1.133,   1.051e-5
1.134,   1.047e-5
1.135,   1.042e-5
1.136,   1.037e-5
1.137,   1.025e-5
1.138,   1.022e-5
1.139,   1.019e-5
1.140,   1.011e-5
1.141,   1.008e-5
1.142,   1.001e-5
1.143,   9.976e-6
1.144,   9.966e-6
1.145,   9.946e-6
1.146,   9.898e-6
1.147,   9.850e-6
1.148,   9.834e-6
1.149,   9.828e-6
1.150,   9.819e-6
1.151,   9.810e-6
1.152,   9.816e-6
1.153,   9.780e-6
1.154,   9.785e-6
1.155,   9.742e-6
1.156,   9.748e-6
1.157,   9.770e-6
1.158,   9.743e-6
1.159,   9.784e-6
1.160,   9.750e-6
1.161,   9.741e-6
1.162,   9.742e-6
1.163,   9.743e-6
1.164,   9.763e-6
1.165,   9.758e-6
1.166,   9.763e-6
1.167,   9.773e-6
1.168,   9.814e-6
1.169,   9.829e-6
1.170,   9.840e-6
1.171,   9.827e-6
1.172,   9.844e-6
1.173,   9.887e-6
1.174,   9.854e-6
1.175,   9.898e-6
1.176,   9.926e-6
1.177,   9.921e-6
1.178,   9.944e-6
1.179,   9.955e-6
1.180,   9.983e-6
1.181,   1.005e-5
1.182,   1.003e-5
1.183,   1.009e-5
1.184,   1.010e-5
1.185,   1.012e-5
1.186,   1.013e-5
1.187,   1.014e-5
1.188,   1.018e-5
1.189,   1.021e-5
1.190,   1.023e-5
1.191,   1.024e-5
1.192,   1.027e-5
1.193,   1.030e-5
1.194,   1.033e-5
1.195,   1.036e-5
1.196,   1.038e-5
1.197,   1.043e-5
1.198,   1.043e-5
1.199,   1.050e-5
1.200,   1.053e-5
1.201,   1.052e-5
1.202,   1.055e-5
1.203,   1.058e-5
1.204,   1.060e-5
1.205,   1.067e-5
1.206,   1.068e-5
1.207,   1.072e-5
1.208,   1.076e-5
1.209,   1.076e-5
1.210,   1.082e-5
1.211,   1.085e-5
1.212,   1.089e-5
1.213,   1.090e-5
1.214,   1.094e-5
1.215,   1.098e-5
1.216,   1.100e-5
1.217,   1.101e-5
1.218,   1.105e-5
1.219,   1.107e-5
1.220,   1.111e-5
1.221,   1.114e-5
1.222,   1.117e-5
1.223,   1.120e-5
1.224,   1.123e-5
1.225,   1.126e-5
1.226,   1.128e-5
1.227,   1.130e-5
1.228,   1.132e-5
1.229,   1.134e-5
1.230,   1.134e-5
1.231,   1.138e-5
1.232,   1.141e-5
1.233,   1.142e-5
1.234,   1.145e-5
1.235,   1.145e-5
1.236,   1.148e-5
1.237,   1.146e-5
1.238,   1.147e-5
1.239,   1.151e-5
1.240,   1.154e-5
1.241,   1.154e-5
1.242,   1.154e-5
1.243,   1.152e-5
1.244,   1.155e-5
1.245,   1.153e-5
1.246,   1.155e-5
1.247,   1.159e-5
1.248,   1.154e-5
1.249,   1.156e-5
1.250,   1.161e-5
1.251,   1.158e-5
1.252,   1.157e-5
1.253,   1.158e-5
1.254,   1.158e-5
1.255,   1.162e-5
1.256,   1.157e-5
1.257,   1.154e-5
1.258,   1.158e-5
1.259,   1.158e-5
1.260,   1.158e-5
1.261,   1.158e-5
1.262,   1.156e-5
1.263,   1.157e-5
1.264,   1.155e-5
1.265,   1.152e-5
1.266,   1.153e-5
1.267,   1.153e-5
1.268,   1.155e-5
1.269,   1.154e-5
1.270,   1.153e-5
1.271,   1.152e-5
1.272,   1.152e-5
1.273,   1.153e-5
1.274,   1.152e-5
1.275,   1.150e-5
1.276,   1.146e-5
1.277,   1.149e-5
1.278,   1.148e-5
1.279,   1.148e-5
1.280,   1.149e-5
1.281,   1.150e-5
1.282,   1.150e-5
1.283,   1.143e-5
1.284,   1.143e-5
1.285,   1.141e-5
1.286,   1.145e-5
1.287,   1.148e-5
1.288,   1.143e-5
1.289,   1.143e-5
1.290,   1.146e-5
1.291,   1.144e-5
1.292,   1.145e-5
1.293,   1.141e-5
1.294,   1.139e-5
1.295,   1.144e-5
1.296,   1.142e-5
1.297,   1.142e-5
1.298,   1.142e-5
1.299,   1.146e-5
1.300,   1.141e-5
1.301,   1.144e-5
1.302,   1.143e-5
1.303,   1.144e-5
1.304,   1.144e-5
1.305,   1.146e-5
1.306,   1.146e-5
1.307,   1.144e-5
1.308,   1.146e-5
1.309,   1.147e-5
1.310,   1.145e-5
1.311,   1.145e-5
1.312,   1.147e-5
1.313,   1.148e-5
1.314,   1.150e-5
1.315,   1.151e-5
1.316,   1.155e-5
1.317,   1.155e-5
1.318,   1.159e-5
1.319,   1.158e-5
1.320,   1.160e-5
1.321,   1.162e-5
1.322,   1.164e-5
1.323,   1.162e-5
1.324,   1.169e-5
1.325,   1.171e-5
1.326,   1.170e-5
1.327,   1.177e-5
1.328,   1.179e-5
1.329,   1.183e-5
1.330,   1.187e-5
1.331,   1.187e-5
1.332,   1.191e-5
1.333,   1.190e-5
1.334,   1.192e-5
1.335,   1.198e-5
1.336,   1.201e-5
1.337,   1.204e-5
1.338,   1.210e-5
1.339,   1.210e-5
1.340,   1.212e-5
1.341,   1.216e-5
1.342,   1.217e-5
1.343,   1.223e-5
1.344,   1.226e-5
1.345,   1.225e-5
1.346,   1.234e-5
1.347,   1.232e-5
1.348,   1.236e-5
1.349,   1.245e-5
1.350,   1.246e-5
1.351,   1.250e-5
1.352,   1.255e-5
1.353,   1.261e-5
1.354,   1.267e-5
1.355,   1.268e-5
1.356,   1.277e-5
1.357,   1.278e-5
1.358,   1.284e-5
1.359,   1.289e-5
1.360,   1.293e-5
1.361,   1.299e-5
1.362,   1.308e-5
1.363,   1.315e-5
1.364,   1.319e-5
1.365,   1.322e-5
1.366,   1.326e-5
1.367,   1.335e-5
1.368,   1.336e-5
1.369,   1.341e-5
1.370,   1.351e-5
1.371,   1.355e-5
1.372,   1.363e-5
1.373,   1.368e-5
1.374,   1.371e-5
1.375,   1.379e-5
1.376,   1.389e-5
1.377,   1.393e-5
1.378,   1.402e-5
1.379,   1.411e-5
1.380,   1.414e-5
1.381,   1.427e-5
1.382,   1.438e-5
1.383,   1.447e-5
1.384,   1.458e-5
1.385,   1.467e-5
1.386,   1.483e-5
1.387,   1.489e-5
1.388,   1.505e-5
1.389,   1.520e-5
1.390,   1.524e-5
1.391,   1.538e-5
1.392,   1.550e-5
1.393,   1.562e-5
1.394,   1.582e-5
1.395,   1.596e-5
1.396,   1.612e-5
1.397,   1.630e-5
1.398,   1.647e-5
1.399,   1.664e-5
1.400,   1.682e-5
1.401,   1.704e-5
1.402,   1.727e-5
1.403,   1.748e-5
1.404,   1.774e-5
1.405,   1.800e-5
1.406,   1.824e-5
1.407,   1.853e-5
1.408,   1.882e-5
1.409,   1.906e-5
1.410,   1.941e-5
1.411,   1.971e-5
1.412,   2.005e-5
1.413,   2.043e-5
1.414,   2.081e-5
1.415,   2.115e-5
1.416,   2.152e-5
1.417,   2.192e-5
1.418,   2.243e-5
1.419,   2.283e-5
1.420,   2.338e-5
1.421,   2.389e-5
1.422,   2.442e-5
1.423,   2.498e-5
1.424,   2.558e-5
1.425,   2.620e-5
1.426,   2.687e-5
1.427,   2.752e-5
1.428,   2.823e-5
1.429,   2.896e-5
1.430,   2.968e-5
1.431,   3.052e-5
1.432,   3.133e-5
1.433,   3.219e-5
1.434,   3.310e-5
1.435,   3.402e-5
1.436,   3.503e-5
1.437,   3.605e-5
1.438,   3.706e-5
1.439,   3.812e-5
1.440,   3.929e-5
1.441,   4.052e-5
1.442,   4.187e-5
1.443,   4.316e-5
1.444,   4.459e-5
1.445,   4.609e-5
1.446,   4.762e-5
1.447,   4.923e-5
1.448,   5.090e-5
1.449,   5.267e-5
1.450,   5.456e-5
1.451,   5.642e-5
1.452,   5.843e-5
1.453,   6.057e-5
1.454,   6.267e-5
1.455,   6.500e-5
1.456,   6.742e-5
1.457,   6.984e-5
1.458,   7.247e-5
1.459,   7.522e-5
1.460,   7.813e-5
1.461,   8.111e-5
1.462,   8.421e-5
1.463,   8.751e-5
1.464,   9.089e-5
1.465,   9.438e-5
1.466,   9.800e-5
1.467,   1.018e-4
1.468,   1.058e-4
1.469,   1.099e-4
1.470,   1.142e-4
1.471,   1.187e-4
1.472,   1.233e-4
1.473,   1.281e-4
1.474,   1.332e-4
1.475,   1.383e-4
1.476,   1.437e-4
1.477,   1.494e-4
1.478,   1.553e-4
1.479,   1.613e-4
1.480,   1.676e-4
1.481,   1.740e-4
1.482,   1.807e-4
1.483,   1.876e-4
1.484,   1.948e-4
1.485,   2.021e-4
1.486,   2.097e-4
1.487,   2.175e-4
1.488,   2.256e-4
1.489,   2.341e-4
1.490,   2.429e-4
1.491,   2.518e-4
1.492,   2.610e-4
1.493,   2.705e-4
1.494,   2.804e-4
1.495,   2.906e-4
1.496,   3.009e-4
1.497,   3.116e-4
1.498,   3.226e-4
1.499,   3.338e-4
1.500,   3.453e-4
1.501,   3.570e-4
1.502,   3.691e-4
1.503,   3.815e-4
1.504,   3.942e-4
1.505,   4.072e-4
1.506,   4.206e-4
1.507,   4.343e-4
1.508,   4.483e-4
1.509,   4.625e-4
1.510,   4.772e-4
1.511,   4.919e-4
1.512,   5.069e-4
1.513,   5.221e-4
1.514,   5.377e-4
1.515,   5.538e-4
1.516,   5.702e-4
1.517,   5.869e-4
1.518,   6.037e-4
1.519,   6.209e-4
1.520,   6.385e-4
1.521,   6.563e-4
1.522,   6.742e-4
1.523,   6.928e-4
1.524,   7.117e-4
1.525,   7.308e-4
1.526,   7.505e-4
1.527,   7.706e-4
1.528,   7.909e-4
1.529,   8.118e-4
1.530,   8.334e-4
1.531,   8.550e-4
1.532,   8.770e-4
1.533,   8.991e-4
1.534,   9.217e-4
1.535,   9.447e-4
1.536,   9.680e-4
1.537,   9.921e-4
1.538,   1.017e-3
1.539,   1.041e-3
1.540,   1.067e-3
1.541,   1.092e-3
1.542,   1.118e-3
1.543,   1.145e-3
1.544,   1.172e-3
1.545,   1.199e-3
1.546,   1.227e-3
1.547,   1.255e-3
1.548,   1.284e-3
1.549,   1.314e-3
1.550,   1.344e-3
1.551,   1.374e-3
1.552,   1.405e-3
1.553,   1.436e-3
1.554,   1.467e-3
1.555,   1.499e-3
1.556,   1.532e-3
1.557,   1.565e-3
1.558,   1.597e-3
1.559,   1.631e-3
1.560,   1.664e-3
1.561,   1.699e-3
1.562,   1.734e-3
1.563,   1.768e-3
1.564,   1.803e-3
1.565,   1.839e-3
1.566,   1.875e-3
1.567,   1.911e-3
1.568,   1.948e-3
1.569,   1.985e-3
1.570,   2.021e-3
1.571,   2.058e-3
1.572,   2.096e-3
1.573,   2.134e-3
1.574,   2.171e-3
1.575,   2.209e-3
1.576,   2.246e-3
1.577,   2.284e-3
1.578,   2.323e-3
1.579,   2.362e-3
1.580,   2.399e-3
1.581,   2.438e-3
1.582,   2.476e-3
1.583,   2.514e-3
1.584,   2.552e-3
1.585,   2.590e-3
1.586,   2.628e-3
1.587,   2.667e-3
1.588,   2.706e-3
1.589,   2.744e-3
1.590,   2.783e-3
1.591,   2.821e-3
1.592,   2.859e-3
1.593,   2.897e-3
1.594,   2.936e-3
1.595,   2.974e-3
1.596,   3.012e-3
1.597,   3.051e-3
1.598,   3.089e-3
1.599,   3.126e-3
1.600,   3.162e-3
1.601,   3.199e-3
1.602,   3.237e-3
1.603,   3.274e-3
1.604,   3.310e-3
1.605,   3.347e-3
1.606,   3.385e-3
1.607,   3.420e-3
1.608,   3.448e-3
1.609,   3.484e-3
1.610,   3.520e-3
1.611,   3.556e-3
1.612,   3.592e-3
1.613,   3.627e-3
1.614,   3.662e-3
1.615,   3.701e-3
1.616,   3.736e-3
1.617,   3.774e-3
1.618,   3.812e-3
1.619,   3.847e-3
1.620,   3.884e-3
1.621,   3.919e-3
1.622,   3.952e-3
1.623,   3.983e-3
1.624,   4.014e-3
1.625,   4.045e-3
1.626,   4.080e-3
1.627,   4.114e-3
1.628,   4.146e-3
1.629,   4.183e-3
1.630,   4.214e-3
1.631,   4.242e-3
1.632,   4.274e-3
1.633,   4.304e-3
1.634,   4.336e-3
1.635,   4.375e-3
1.636,   4.406e-3
1.637,   4.436e-3
1.638,   4.465e-3
1.639,   4.491e-3
1.640,   4.516e-3
1.641,   4.546e-3
1.642,   4.584e-3
1.643,   4.614e-3
1.644,   4.641e-3
1.645,   4.678e-3
1.646,   4.707e-3
1.647,   4.731e-3
1.648,   4.753e-3
1.649,   4.775e-3
1.650,   4.797e-3
1.651,   4.823e-3
1.652,   4.845e-3
1.653,   4.871e-3
1.654,   4.896e-3
1.655,   4.926e-3
1.656,   4.946e-3
1.657,   4.976e-3
1.658,   5.003e-3
1.659,   5.020e-3
1.660,   5.037e-3
1.661,   5.056e-3
1.662,   5.084e-3
1.663,   5.104e-3
1.664,   5.118e-3
1.665,   5.133e-3
1.666,   5.147e-3
1.667,   5.168e-3
1.668,   5.211e-3
1.669,   5.233e-3
1.670,   5.251e-3
1.671,   5.310e-3
1.672,   5.381e-3
1.673,   5.411e-3
1.674,   5.450e-3
1.675,   5.483e-3
1.676,   5.511e-3
1.677,   5.518e-3
1.678,   5.531e-3
1.679,   5.541e-3
1.680,   5.553e-3
1.681,   5.562e-3
1.682,   5.579e-3
1.683,   5.590e-3
1.684,   5.601e-3
1.685,   5.617e-3
1.686,   5.628e-3
1.687,   5.636e-3
1.688,   5.640e-3
1.689,   5.643e-3
1.690,   5.652e-3
1.691,   5.667e-3
1.692,   5.676e-3
1.693,   5.680e-3
1.694,   5.687e-3
1.695,   5.694e-3
1.696,   5.730e-3
1.697,   5.768e-3
1.698,   5.780e-3
1.699,   5.799e-3
1.700,   5.813e-3
1.701,   5.814e-3
1.702,   5.809e-3
1.703,   5.805e-3
1.704,   5.800e-3
1.705,   5.800e-3
1.706,   5.802e-3
1.707,   5.800e-3
1.708,   5.799e-3
1.709,   5.797e-3
1.710,   5.795e-3
1.711,   5.805e-3
1.712,   5.829e-3
1.713,   5.838e-3
1.714,   5.835e-3
1.715,   5.831e-3
1.716,   5.825e-3
1.717,   5.820e-3
1.718,   5.818e-3
1.719,   5.816e-3
1.720,   5.816e-3
1.721,   5.822e-3
1.722,   5.818e-3
1.723,   5.820e-3
1.724,   5.823e-3
1.725,   5.824e-3
1.726,   5.823e-3
1.727,   5.817e-3
1.728,   5.810e-3
1.729,   5.828e-3
1.730,   5.833e-3
1.731,   5.826e-3
1.732,   5.814e-3
1.733,   5.803e-3
1.734,   5.868e-3
1.735,   6.014e-3
1.736,   6.006e-3
1.737,   5.983e-3
1.738,   5.965e-3
1.739,   5.945e-3
1.740,   5.925e-3
1.741,   5.910e-3
1.742,   5.892e-3
1.743,   5.871e-3
1.744,   5.854e-3
1.745,   5.840e-3
1.746,   5.819e-3
1.747,   5.802e-3
1.748,   5.790e-3
1.749,   5.776e-3
1.750,   5.758e-3
1.751,   5.738e-3
1.752,   5.724e-3
1.753,   5.713e-3
1.754,   5.698e-3
1.755,   5.687e-3
1.756,   5.686e-3
1.757,   5.673e-3
1.758,   5.672e-3
1.759,   5.652e-3
1.760,   5.635e-3
1.761,   5.614e-3
1.762,   5.608e-3
1.763,   5.590e-3
1.764,   5.568e-3
1.765,   5.547e-3
1.766,   5.522e-3
1.767,   5.503e-3
1.768,   5.485e-3
1.769,   5.465e-3
1.770,   5.446e-3
1.771,   5.426e-3
1.772,   5.408e-3
1.773,   5.392e-3
1.774,   5.377e-3
1.775,   5.367e-3
1.776,   5.353e-3
1.777,   5.350e-3
1.778,   5.330e-3
1.779,   5.309e-3
1.780,   5.287e-3
1.781,   5.264e-3
1.782,   5.243e-3
1.783,   5.222e-3
1.784,   5.207e-3
1.785,   5.185e-3
1.786,   5.164e-3
1.787,   5.141e-3
1.788,   5.126e-3
1.789,   5.107e-3
1.790,   5.089e-3
1.791,   5.067e-3
1.792,   5.048e-3
1.793,   5.028e-3
1.794,   5.008e-3
1.795,   5.069e-3
1.796,   5.081e-3
1.797,   5.057e-3
1.798,   5.029e-3