File: Experimental Records, Raw Data, and Supplementary Notes and Figures/batch2/final500/B2_VARIANCE_500#19_High_Quality-247mV.txt
Jan. 19, 2023   14:46:47
Linear Sweep Voltammetry
File: d:\current work\al_oer\electrochemical test data\batch 2\500\B2_VARIANCE_500#19_High_Quality-247mV.txt
Data Source:  Experiment
Instrument Model:  CHI660E
Header:
Note:

Init E (V) = 1.100

Final E (V) = 1.727

Scan Rate (V/s) = 0.010
Sample Interval (V) = 0.001
Quiet Time (sec) = 2
Sensitivity (A/V) = 0.001
Comp R (ohm) = 5.9

Results:

Channel 1:
Ep = 1.361V
ip = 9.952e-3A
Ah = 1.022e-1C

Potential/V, Current/A
1.100,   2.660e-4
1.101,   2.520e-4
1.102,   2.374e-4
1.103,   2.239e-4
1.104,   2.118e-4
1.105,   2.008e-4
1.106,   1.911e-4
1.107,   1.823e-4
1.108,   1.742e-4
1.109,   1.669e-4
1.110,   1.601e-4
1.111,   1.540e-4
1.112,   1.484e-4
1.113,   1.432e-4
1.114,   1.384e-4
1.115,   1.341e-4
1.116,   1.299e-4
1.117,   1.261e-4
1.118,   1.226e-4
1.119,   1.193e-4
1.120,   1.162e-4
1.121,   1.133e-4
1.122,   1.106e-4
1.123,   1.080e-4
1.124,   1.055e-4
1.125,   1.032e-4
1.126,   1.012e-4
1.127,   9.917e-5
1.128,   9.726e-5
1.129,   9.545e-5
1.130,   9.385e-5
1.131,   9.232e-5
1.132,   9.077e-5
1.133,   8.936e-5
1.134,   8.799e-5
1.135,   8.667e-5
1.136,   8.544e-5
1.137,   8.426e-5
1.138,   8.313e-5
1.139,   8.208e-5
1.140,   8.109e-5
1.141,   8.013e-5
1.142,   7.925e-5
1.143,   7.834e-5
1.144,   7.758e-5
1.145,   7.675e-5
1.146,   7.599e-5
1.147,   7.529e-5
1.148,   7.447e-5
1.149,   7.388e-5
1.150,   7.330e-5
1.151,   7.269e-5
1.152,   7.221e-5
1.153,   7.160e-5
1.154,   7.107e-5
1.155,   7.061e-5
1.156,   7.009e-5
1.157,   6.962e-5
1.158,   6.924e-5
1.159,   6.883e-5
1.160,   6.840e-5
1.161,   6.802e-5
1.162,   6.768e-5
1.163,   6.736e-5
1.164,   6.700e-5
1.165,   6.673e-5
1.166,   6.646e-5
1.167,   6.607e-5
1.168,   6.589e-5
1.169,   6.564e-5
1.170,   6.540e-5
1.171,   6.520e-5
1.172,   6.495e-5
1.173,   6.477e-5
1.174,   6.455e-5
1.175,   6.426e-5
1.176,   6.409e-5
1.177,   6.387e-5
1.178,   6.373e-5
1.179,   6.359e-5
1.180,   6.336e-5
1.181,   6.327e-5
1.182,   6.317e-5
1.183,   6.294e-5
1.184,   6.283e-5
1.185,   6.276e-5
1.186,   6.261e-5
1.187,   6.252e-5
1.188,   6.242e-5
1.189,   6.236e-5
1.190,   6.231e-5
1.191,   6.217e-5
1.192,   6.210e-5
1.193,   6.203e-5
1.194,   6.196e-5
1.195,   6.196e-5
1.196,   6.180e-5
1.197,   6.179e-5
1.198,   6.173e-5
1.199,   6.165e-5
1.200,   6.165e-5
1.201,   6.157e-5
1.202,   6.149e-5
1.203,   6.151e-5
1.204,   6.142e-5
1.205,   6.148e-5
1.206,   6.145e-5
1.207,   6.141e-5
1.208,   6.141e-5
1.209,   6.135e-5
1.210,   6.136e-5
1.211,   6.135e-5
1.212,   6.137e-5
1.213,   6.137e-5
1.214,   6.134e-5
1.215,   6.129e-5
1.216,   6.136e-5
1.217,   6.133e-5
1.218,   6.131e-5
1.219,   6.138e-5
1.220,   6.133e-5
1.221,   6.141e-5
1.222,   6.142e-5
1.223,   6.141e-5
1.224,   6.146e-5
1.225,   6.151e-5
1.226,   6.155e-5
1.227,   6.161e-5
1.228,   6.151e-5
1.229,   6.160e-5
1.230,   6.161e-5
1.231,   6.158e-5
1.232,   6.167e-5
1.233,   6.169e-5
1.234,   6.168e-5
1.235,   6.177e-5
1.236,   6.184e-5
1.237,   6.186e-5
1.238,   6.186e-5
1.239,   6.182e-5
1.240,   6.187e-5
1.241,   6.188e-5
1.242,   6.199e-5
1.243,   6.208e-5
1.244,   6.201e-5
1.245,   6.209e-5
1.246,   6.215e-5
1.247,   6.212e-5
1.248,   6.218e-5
1.249,   6.227e-5
1.250,   6.230e-5
1.251,   6.240e-5
1.252,   6.245e-5
1.253,   6.248e-5
1.254,   6.255e-5
1.255,   6.255e-5
1.256,   6.264e-5
1.257,   6.273e-5
1.258,   6.279e-5
1.259,   6.285e-5
1.260,   6.281e-5
1.261,   6.294e-5
1.262,   6.306e-5
1.263,   6.305e-5
1.264,   6.316e-5
1.265,   6.327e-5
1.266,   6.328e-5
1.267,   6.338e-5
1.268,   6.347e-5
1.269,   6.353e-5
1.270,   6.350e-5
1.271,   6.355e-5
1.272,   6.362e-5
1.273,   6.368e-5
1.274,   6.378e-5
1.275,   6.389e-5
1.276,   6.382e-5
1.277,   6.393e-5
1.278,   6.404e-5
1.279,   6.405e-5
1.280,   6.420e-5
1.281,   6.419e-5
1.282,   6.426e-5
1.283,   6.439e-5
1.284,   6.442e-5
1.285,   6.459e-5
1.286,   6.462e-5
1.287,   6.464e-5
1.288,   6.474e-5
1.289,   6.479e-5
1.290,   6.488e-5
1.291,   6.499e-5
1.292,   6.498e-5
1.293,   6.512e-5
1.294,   6.528e-5
1.295,   6.529e-5
1.296,   6.550e-5
1.297,   6.551e-5
1.298,   6.557e-5
1.299,   6.572e-5
1.300,   6.582e-5
1.301,   6.589e-5
1.302,   6.602e-5
1.303,   6.609e-5
1.304,   6.626e-5
1.305,   6.634e-5
1.306,   6.646e-5
1.307,   6.657e-5
1.308,   6.656e-5
1.309,   6.677e-5
1.310,   6.689e-5
1.311,   6.691e-5
1.312,   6.702e-5
1.313,   6.714e-5
1.314,   6.717e-5
1.315,   6.733e-5
1.316,   6.746e-5
1.317,   6.755e-5
1.318,   6.767e-5
1.319,   6.777e-5
1.320,   6.795e-5
1.321,   6.804e-5
1.322,   6.820e-5
1.323,   6.840e-5
1.324,   6.842e-5
1.325,   6.870e-5
1.326,   6.885e-5
1.327,   6.897e-5
1.328,   6.914e-5
1.329,   6.925e-5
1.330,   6.935e-5
1.331,   6.962e-5
1.332,   6.984e-5
1.333,   6.993e-5
1.334,   7.010e-5
1.335,   7.026e-5
1.336,   7.048e-5
1.337,   7.063e-5
1.338,   7.086e-5
1.339,   7.109e-5
1.340,   7.121e-5
1.341,   7.145e-5
1.342,   7.169e-5
1.343,   7.184e-5
1.344,   7.214e-5
1.345,   7.245e-5
1.346,   7.263e-5
1.347,   7.296e-5
1.348,   7.317e-5
1.349,   7.351e-5
1.350,   7.375e-5
1.351,   7.405e-5
1.352,   7.436e-5
1.353,   7.460e-5
1.354,   7.491e-5
1.355,   7.527e-5
1.356,   7.556e-5
1.357,   7.601e-5
1.358,   7.641e-5
1.359,   7.672e-5
1.360,   7.720e-5
1.361,   7.754e-5
1.362,   7.796e-5
1.363,   7.843e-5
1.364,   7.888e-5
1.365,   7.935e-5
1.366,   7.983e-5
1.367,   8.025e-5
1.368,   8.076e-5
1.369,   8.120e-5
1.370,   8.175e-5
1.371,   8.236e-5
1.372,   8.296e-5
1.373,   8.369e-5
1.374,   8.442e-5
1.375,   8.504e-5
1.376,   8.590e-5
1.377,   8.673e-5
1.378,   8.755e-5
1.379,   8.860e-5
1.380,   8.948e-5
1.381,   9.052e-5
1.382,   9.158e-5
1.383,   9.268e-5
1.384,   9.400e-5
1.385,   9.524e-5
1.386,   9.666e-5
1.387,   9.821e-5
1.388,   9.978e-5
1.389,   1.016e-4
1.390,   1.033e-4
1.391,   1.050e-4
1.392,   1.071e-4
1.393,   1.092e-4
1.394,   1.114e-4
1.395,   1.139e-4
1.396,   1.164e-4
1.397,   1.191e-4
1.398,   1.220e-4
1.399,   1.249e-4
1.400,   1.280e-4
1.401,   1.314e-4
1.402,   1.350e-4
1.403,   1.388e-4
1.404,   1.428e-4
1.405,   1.471e-4
1.406,   1.515e-4
1.407,   1.562e-4
1.408,   1.612e-4
1.409,   1.664e-4
1.410,   1.718e-4
1.411,   1.775e-4
1.412,   1.835e-4
1.413,   1.898e-4
1.414,   1.963e-4
1.415,   2.042e-4
1.416,   2.131e-4
1.417,   2.215e-4
1.418,   2.302e-4
1.419,   2.393e-4
1.420,   2.482e-4
1.421,   2.577e-4
1.422,   2.676e-4
1.423,   2.776e-4
1.424,   2.886e-4
1.425,   2.996e-4
1.426,   3.111e-4
1.427,   3.231e-4
1.428,   3.354e-4
1.429,   3.498e-4
1.430,   3.664e-4
1.431,   3.816e-4
1.432,   3.970e-4
1.433,   4.122e-4
1.434,   4.258e-4
1.435,   4.408e-4
1.436,   4.599e-4
1.437,   4.818e-4
1.438,   5.012e-4
1.439,   5.207e-4
1.440,   5.408e-4
1.441,   5.603e-4
1.442,   5.804e-4
1.443,   6.046e-4
1.444,   6.280e-4
1.445,   6.519e-4
1.446,   6.751e-4
1.447,   6.950e-4
1.448,   7.219e-4
1.449,   7.506e-4
1.450,   7.786e-4
1.451,   8.060e-4
1.452,   8.367e-4
1.453,   8.666e-4
1.454,   8.971e-4
1.455,   9.250e-4
1.456,   9.584e-4
1.457,   9.925e-4
1.458,   1.028e-3
1.459,   1.068e-3
1.460,   1.105e-3
1.461,   1.143e-3
1.462,   1.183e-3
1.463,   1.223e-3
1.464,   1.264e-3
1.465,   1.311e-3
1.466,   1.354e-3
1.467,   1.399e-3
1.468,   1.442e-3
1.469,   1.492e-3
1.470,   1.541e-3
1.471,   1.587e-3
1.472,   1.634e-3
1.473,   1.691e-3
1.474,   1.745e-3
1.475,   1.798e-3
1.476,   1.858e-3
1.477,   1.916e-3
1.478,   1.977e-3
1.479,   2.033e-3
1.480,   2.092e-3
1.481,   2.160e-3
1.482,   2.230e-3
1.483,   2.296e-3
1.484,   2.363e-3
1.485,   2.428e-3
1.486,   2.501e-3
1.487,   2.579e-3
1.488,   2.650e-3
1.489,   2.718e-3
1.490,   2.790e-3
1.491,   2.871e-3
1.492,   2.949e-3
1.493,   3.025e-3
1.494,   3.104e-3
1.495,   3.190e-3
1.496,   3.280e-3
1.497,   3.364e-3
1.498,   3.454e-3
1.499,   3.542e-3
1.500,   3.626e-3
1.501,   3.716e-3
1.502,   3.799e-3
1.503,   3.890e-3
1.504,   3.980e-3
1.505,   4.080e-3
1.506,   4.170e-3
1.507,   4.270e-3
1.508,   4.354e-3
1.509,   4.458e-3
1.510,   4.569e-3
1.511,   4.680e-3
1.512,   4.783e-3
1.513,   4.886e-3
1.514,   4.985e-3
1.515,   5.083e-3
1.516,   5.185e-3
1.517,   5.311e-3
1.518,   5.408e-3
1.519,   5.501e-3
1.520,   5.611e-3
1.521,   5.724e-3
1.522,   5.827e-3
1.523,   5.933e-3
1.524,   6.027e-3
1.525,   6.152e-3
1.526,   6.262e-3
1.527,   6.367e-3
1.528,   6.490e-3
1.529,   6.603e-3
1.530,   6.722e-3
1.531,   6.832e-3
1.532,   6.934e-3
1.533,   7.063e-3
1.534,   7.158e-3
1.535,   7.271e-3
1.536,   7.382e-3
1.537,   7.515e-3
1.538,   7.613e-3
1.539,   7.718e-3
1.540,   7.825e-3
1.541,   7.947e-3
1.542,   8.055e-3
1.543,   8.167e-3
1.544,   8.261e-3
1.545,   8.365e-3
1.546,   8.526e-3
1.547,   8.665e-3
1.548,   8.777e-3
1.549,   8.884e-3
1.550,   9.007e-3
1.551,   9.123e-3
1.552,   9.222e-3
1.553,   9.348e-3
1.554,   9.438e-3
1.555,   9.562e-3
1.556,   9.675e-3
1.557,   9.783e-3
1.558,   9.929e-3
1.559,   1.005e-2
1.560,   1.006e-2
1.561,   1.006e-2
1.562,   1.006e-2
1.563,   1.006e-2
1.564,   1.006e-2
1.565,   1.006e-2
1.566,   1.006e-2
1.567,   1.006e-2
1.568,   1.006e-2
1.569,   1.006e-2
1.570,   1.006e-2
1.571,   1.006e-2
1.572,   1.006e-2
1.573,   1.006e-2
1.574,   1.006e-2
1.575,   1.006e-2
1.576,   1.006e-2
1.577,   1.006e-2
1.578,   1.006e-2
1.579,   1.006e-2
1.580,   1.006e-2
1.581,   1.006e-2
1.582,   1.006e-2
1.583,   1.006e-2
1.584,   1.006e-2
1.585,   1.006e-2
1.586,   1.006e-2
1.587,   1.006e-2
1.588,   1.006e-2
1.589,   1.006e-2
1.590,   1.006e-2
1.591,   1.006e-2
1.592,   1.006e-2
1.593,   1.006e-2
1.594,   1.006e-2
1.595,   1.006e-2
1.596,   1.006e-2
1.597,   1.006e-2
1.598,   1.006e-2
1.599,   1.006e-2
1.600,   1.006e-2
1.601,   1.006e-2
1.602,   1.006e-2
1.603,   1.006e-2
1.604,   1.006e-2
1.605,   1.006e-2
1.606,   1.006e-2
1.607,   1.006e-2
1.608,   1.006e-2
1.609,   1.006e-2
1.610,   1.006e-2
1.611,   1.006e-2
1.612,   1.006e-2
1.613,   1.006e-2
1.614,   1.006e-2
1.615,   1.006e-2
1.616,   1.006e-2
1.617,   1.006e-2
1.618,   1.006e-2
1.619,   1.006e-2
1.620,   1.006e-2
1.621,   1.006e-2
1.622,   1.006e-2
1.623,   1.006e-2
1.624,   1.006e-2
1.625,   1.006e-2
1.626,   1.006e-2
1.627,   1.006e-2
1.628,   1.006e-2
1.629,   1.006e-2
1.630,   1.006e-2
1.631,   1.006e-2
1.632,   1.006e-2
1.633,   1.006e-2
1.634,   1.006e-2
1.635,   1.006e-2
1.636,   1.006e-2
1.637,   1.006e-2
1.638,   1.006e-2
1.639,   1.006e-2
1.640,   1.006e-2
1.641,   1.006e-2
1.642,   1.006e-2
1.643,   1.006e-2
1.644,   1.006e-2
1.645,   1.006e-2
1.646,   1.006e-2
1.647,   1.006e-2
1.648,   1.006e-2
1.649,   1.006e-2
1.650,   1.006e-2
1.651,   1.006e-2
1.652,   1.006e-2
1.653,   1.006e-2
1.654,   1.006e-2
1.655,   1.006e-2
1.656,   1.006e-2
1.657,   1.006e-2
1.658,   1.006e-2
1.659,   1.006e-2
1.660,   1.006e-2
1.661,   1.006e-2
1.662,   1.006e-2
1.663,   1.006e-2
1.664,   1.006e-2
1.665,   1.006e-2
1.666,   1.006e-2
1.667,   1.006e-2
1.668,   1.006e-2
1.669,   1.006e-2
1.670,   1.006e-2
1.671,   1.006e-2
1.672,   1.006e-2
1.673,   1.006e-2
1.674,   1.006e-2
1.675,   1.006e-2
1.676,   1.006e-2
1.677,   1.006e-2
1.678,   1.006e-2
1.679,   1.006e-2
1.680,   1.006e-2
1.681,   1.006e-2
1.682,   1.006e-2
1.683,   1.006e-2
1.684,   1.006e-2
1.685,   1.006e-2
1.686,   1.006e-2
1.687,   1.006e-2
1.688,   1.006e-2
1.689,   1.006e-2
1.690,   1.006e-2
1.691,   1.006e-2
1.692,   1.006e-2
1.693,   1.006e-2
1.694,   1.006e-2
1.695,   1.006e-2
1.696,   1.006e-2
1.697,   1.006e-2
1.698,   1.006e-2
1.699,   1.006e-2
1.700,   1.006e-2
1.701,   1.006e-2
1.702,   1.006e-2
1.703,   1.006e-2
1.704,   1.006e-2
1.705,   1.006e-2
1.706,   1.006e-2
1.707,   1.006e-2
1.708,   1.006e-2
1.709,   1.006e-2
1.710,   1.006e-2
1.711,   1.006e-2
1.712,   1.006e-2
1.713,   1.006e-2
1.714,   1.006e-2
1.715,   1.006e-2
1.716,   1.006e-2
1.717,   1.006e-2
1.718,   1.006e-2
1.719,   1.006e-2
1.720,   1.006e-2
1.721,   1.006e-2
1.722,   1.006e-2
1.723,   1.006e-2
1.724,   1.006e-2
1.725,   1.006e-2
1.726,   1.006e-2
1.727,   1.006e-2