File: Experimental Records, Raw Data, and Supplementary Notes and Figures/batch3/final500/B3_500_VARIANCE_#1_Full(#9)-466mV.txt
Feb. 22, 2023   14:11:10
Linear Sweep Voltammetry
File: d:\current work\al_oer\electrochemical test data\batch 3\500\B3_500_VARIANCE_#1_Full(#9)-466mV.txt
Data Source:  Experiment
Instrument Model:  CHI660E
Header:
Note:

Init E (V) = 1.100

Final E (V) = 1.716

Scan Rate (V/s) = 0.010
Sample Interval (V) = 0.001
Quiet Time (sec) = 2
Sensitivity (A/V) = 0.001
Comp R (ohm) = 5.0

Results:

Channel 1:

Potential/V, Current/A
1.100,   1.217e-5
1.101,   1.165e-5
1.102,   1.105e-5
1.103,   1.052e-5
1.104,   1.004e-5
1.105,   9.601e-6
1.106,   9.218e-6
1.107,   8.858e-6
1.108,   8.565e-6
1.109,   8.268e-6
1.110,   8.039e-6
1.111,   7.794e-6
1.112,   7.617e-6
1.113,   7.404e-6
1.114,   7.215e-6
1.115,   7.024e-6
1.116,   6.873e-6
1.117,   6.715e-6
1.118,   6.591e-6
1.119,   6.457e-6
1.120,   6.352e-6
1.121,   6.249e-6
1.122,   6.104e-6
1.123,   6.037e-6
1.124,   5.954e-6
1.125,   5.880e-6
1.126,   5.824e-6
1.127,   5.748e-6
1.128,   5.630e-6
1.129,   5.560e-6
1.130,   5.503e-6
1.131,   5.414e-6
1.132,   5.364e-6
1.133,   5.329e-6
1.134,   5.228e-6
1.135,   5.163e-6
1.136,   5.134e-6
1.137,   5.093e-6
1.138,   5.031e-6
1.139,   4.982e-6
1.140,   4.926e-6
1.141,   4.909e-6
1.142,   4.888e-6
1.143,   4.838e-6
1.144,   4.818e-6
1.145,   4.811e-6
1.146,   4.762e-6
1.147,   4.721e-6
1.148,   4.685e-6
1.149,   4.679e-6
1.150,   4.628e-6
1.151,   4.618e-6
1.152,   4.631e-6
1.153,   4.603e-6
1.154,   4.558e-6
1.155,   4.529e-6
1.156,   4.513e-6
1.157,   4.485e-6
1.158,   4.459e-6
1.159,   4.449e-6
1.160,   4.474e-6
1.161,   4.439e-6
1.162,   4.450e-6
1.163,   4.411e-6
1.164,   4.382e-6
1.165,   4.348e-6
1.166,   4.353e-6
1.167,   4.329e-6
1.168,   4.319e-6
1.169,   4.311e-6
1.170,   4.301e-6
1.171,   4.292e-6
1.172,   4.286e-6
1.173,   4.274e-6
1.174,   4.284e-6
1.175,   4.286e-6
1.176,   4.277e-6
1.177,   4.245e-6
1.178,   4.223e-6
1.179,   4.207e-6
1.180,   4.240e-6
1.181,   4.214e-6
1.182,   4.211e-6
1.183,   4.219e-6
1.184,   4.199e-6
1.185,   4.197e-6
1.186,   4.179e-6
1.187,   4.202e-6
1.188,   4.198e-6
1.189,   4.195e-6
1.190,   4.191e-6
1.191,   4.190e-6
1.192,   4.163e-6
1.193,   4.157e-6
1.194,   4.187e-6
1.195,   4.173e-6
1.196,   4.181e-6
1.197,   4.176e-6
1.198,   4.171e-6
1.199,   4.151e-6
1.200,   4.165e-6
1.201,   4.182e-6
1.202,   4.160e-6
1.203,   4.164e-6
1.204,   4.156e-6
1.205,   4.153e-6
1.206,   4.168e-6
1.207,   4.190e-6
1.208,   4.163e-6
1.209,   4.176e-6
1.210,   4.178e-6
1.211,   4.183e-6
1.212,   4.187e-6
1.213,   4.178e-6
1.214,   4.183e-6
1.215,   4.183e-6
1.216,   4.183e-6
1.217,   4.198e-6
1.218,   4.207e-6
1.219,   4.186e-6
1.220,   4.212e-6
1.221,   4.169e-6
1.222,   4.196e-6
1.223,   4.217e-6
1.224,   4.221e-6
1.225,   4.210e-6
1.226,   4.214e-6
1.227,   4.234e-6
1.228,   4.206e-6
1.229,   4.236e-6
1.230,   4.249e-6
1.231,   4.247e-6
1.232,   4.221e-6
1.233,   4.218e-6
1.234,   4.234e-6
1.235,   4.245e-6
1.236,   4.269e-6
1.237,   4.280e-6
1.238,   4.250e-6
1.239,   4.279e-6
1.240,   4.283e-6
1.241,   4.277e-6
1.242,   4.286e-6
1.243,   4.275e-6
1.244,   4.270e-6
1.245,   4.294e-6
1.246,   4.300e-6
1.247,   4.323e-6
1.248,   4.310e-6
1.249,   4.319e-6
1.250,   4.349e-6
1.251,   4.329e-6
1.252,   4.331e-6
1.253,   4.351e-6
1.254,   4.345e-6
1.255,   4.343e-6
1.256,   4.362e-6
1.257,   4.385e-6
1.258,   4.382e-6
1.259,   4.398e-6
1.260,   4.396e-6
1.261,   4.386e-6
1.262,   4.388e-6
1.263,   4.437e-6
1.264,   4.435e-6
1.265,   4.424e-6
1.266,   4.438e-6
1.267,   4.420e-6
1.268,   4.448e-6
1.269,   4.477e-6
1.270,   4.466e-6
1.271,   4.461e-6
1.272,   4.469e-6
1.273,   4.488e-6
1.274,   4.507e-6
1.275,   4.513e-6
1.276,   4.514e-6
1.277,   4.551e-6
1.278,   4.569e-6
1.279,   4.554e-6
1.280,   4.551e-6
1.281,   4.566e-6
1.282,   4.569e-6
1.283,   4.592e-6
1.284,   4.595e-6
1.285,   4.632e-6
1.286,   4.627e-6
1.287,   4.648e-6
1.288,   4.652e-6
1.289,   4.669e-6
1.290,   4.685e-6
1.291,   4.700e-6
1.292,   4.704e-6
1.293,   4.724e-6
1.294,   4.745e-6
1.295,   4.739e-6
1.296,   4.764e-6
1.297,   4.795e-6
1.298,   4.769e-6
1.299,   4.780e-6
1.300,   4.818e-6
1.301,   4.821e-6
1.302,   4.829e-6
1.303,   4.842e-6
1.304,   4.866e-6
1.305,   4.879e-6
1.306,   4.868e-6
1.307,   4.908e-6
1.308,   4.937e-6
1.309,   4.927e-6
1.310,   4.961e-6
1.311,   4.984e-6
1.312,   4.986e-6
1.313,   4.997e-6
1.314,   5.011e-6
1.315,   5.011e-6
1.316,   5.061e-6
1.317,   5.061e-6
1.318,   5.099e-6
1.319,   5.093e-6
1.320,   5.119e-6
1.321,   5.128e-6
1.322,   5.169e-6
1.323,   5.177e-6
1.324,   5.195e-6
1.325,   5.218e-6
1.326,   5.207e-6
1.327,   5.249e-6
1.328,   5.272e-6
1.329,   5.286e-6
1.330,   5.294e-6
1.331,   5.316e-6
1.332,   5.350e-6
1.333,   5.372e-6
1.334,   5.401e-6
1.335,   5.420e-6
1.336,   5.447e-6
1.337,   5.453e-6
1.338,   5.471e-6
1.339,   5.506e-6
1.340,   5.528e-6
1.341,   5.552e-6
1.342,   5.581e-6
1.343,   5.582e-6
1.344,   5.595e-6
1.345,   5.660e-6
1.346,   5.703e-6
1.347,   5.740e-6
1.348,   5.750e-6
1.349,   5.762e-6
1.350,   5.771e-6
1.351,   5.784e-6
1.352,   5.815e-6
1.353,   5.843e-6
1.354,   5.887e-6
1.355,   5.914e-6
1.356,   5.930e-6
1.357,   5.964e-6
1.358,   5.970e-6
1.359,   5.990e-6
1.360,   6.025e-6
1.361,   6.072e-6
1.362,   6.082e-6
1.363,   6.107e-6
1.364,   6.153e-6
1.365,   6.171e-6
1.366,   6.202e-6
1.367,   6.246e-6
1.368,   6.262e-6
1.369,   6.310e-6
1.370,   6.352e-6
1.371,   6.378e-6
1.372,   6.419e-6
1.373,   6.416e-6
1.374,   6.471e-6
1.375,   6.505e-6
1.376,   6.531e-6
1.377,   6.548e-6
1.378,   6.597e-6
1.379,   6.641e-6
1.380,   6.650e-6
1.381,   6.675e-6
1.382,   6.744e-6
1.383,   6.778e-6
1.384,   6.836e-6
1.385,   6.876e-6
1.386,   6.899e-6
1.387,   6.957e-6
1.388,   7.012e-6
1.389,   7.046e-6
1.390,   7.057e-6
1.391,   7.055e-6
1.392,   7.121e-6
1.393,   7.147e-6
1.394,   7.194e-6
1.395,   7.249e-6
1.396,   7.321e-6
1.397,   7.371e-6
1.398,   7.391e-6
1.399,   7.437e-6
1.400,   7.476e-6
1.401,   7.556e-6
1.402,   7.594e-6
1.403,   7.622e-6
1.404,   7.652e-6
1.405,   7.710e-6
1.406,   7.779e-6
1.407,   7.821e-6
1.408,   7.892e-6
1.409,   7.933e-6
1.410,   8.001e-6
1.411,   8.070e-6
1.412,   8.107e-6
1.413,   8.166e-6
1.414,   8.214e-6
1.415,   8.310e-6
1.416,   8.329e-6
1.417,   8.391e-6
1.418,   8.427e-6
1.419,   8.497e-6
1.420,   8.547e-6
1.421,   8.651e-6
1.422,   8.756e-6
1.423,   8.792e-6
1.424,   8.847e-6
1.425,   8.970e-6
1.426,   9.040e-6
1.427,   9.118e-6
1.428,   9.189e-6
1.429,   9.292e-6
1.430,   9.387e-6
1.431,   9.498e-6
1.432,   9.604e-6
1.433,   9.705e-6
1.434,   9.814e-6
1.435,   9.951e-6
1.436,   1.006e-5
1.437,   1.018e-5
1.438,   1.025e-5
1.439,   1.037e-5
1.440,   1.050e-5
1.441,   1.065e-5
1.442,   1.079e-5
1.443,   1.092e-5
1.444,   1.109e-5
1.445,   1.122e-5
1.446,   1.140e-5
1.447,   1.156e-5
1.448,   1.174e-5
1.449,   1.193e-5
1.450,   1.209e-5
1.451,   1.229e-5
1.452,   1.248e-5
1.453,   1.269e-5
1.454,   1.294e-5
1.455,   1.318e-5
1.456,   1.336e-5
1.457,   1.362e-5
1.458,   1.384e-5
1.459,   1.412e-5
1.460,   1.437e-5
1.461,   1.465e-5
1.462,   1.494e-5
1.463,   1.526e-5
1.464,   1.559e-5
1.465,   1.590e-5
1.466,   1.622e-5
1.467,   1.657e-5
1.468,   1.689e-5
1.469,   1.727e-5
1.470,   1.764e-5
1.471,   1.802e-5
1.472,   1.844e-5
1.473,   1.883e-5
1.474,   1.925e-5
1.475,   1.972e-5
1.476,   2.020e-5
1.477,   2.071e-5
1.478,   2.122e-5
1.479,   2.174e-5
1.480,   2.224e-5
1.481,   2.278e-5
1.482,   2.334e-5
1.483,   2.392e-5
1.484,   2.455e-5
1.485,   2.514e-5
1.486,   2.577e-5
1.487,   2.644e-5
1.488,   2.712e-5
1.489,   2.782e-5
1.490,   2.858e-5
1.491,   2.931e-5
1.492,   3.010e-5
1.493,   3.099e-5
1.494,   3.171e-5
1.495,   3.252e-5
1.496,   3.338e-5
1.497,   3.430e-5
1.498,   3.520e-5
1.499,   3.615e-5
1.500,   3.710e-5
1.501,   3.800e-5
1.502,   3.904e-5
1.503,   4.012e-5
1.504,   4.121e-5
1.505,   4.236e-5
1.506,   4.350e-5
1.507,   4.467e-5
1.508,   4.588e-5
1.509,   4.718e-5
1.510,   4.844e-5
1.511,   4.977e-5
1.512,   5.113e-5
1.513,   5.252e-5
1.514,   5.398e-5
1.515,   5.545e-5
1.516,   5.694e-5
1.517,   5.851e-5
1.518,   6.015e-5
1.519,   6.184e-5
1.520,   6.355e-5
1.521,   6.527e-5
1.522,   6.710e-5
1.523,   6.893e-5
1.524,   7.083e-5
1.525,   7.274e-5
1.526,   7.471e-5
1.527,   7.682e-5
1.528,   7.893e-5
1.529,   8.105e-5
1.530,   8.327e-5
1.531,   8.555e-5
1.532,   8.784e-5
1.533,   9.018e-5
1.534,   9.259e-5
1.535,   9.506e-5
1.536,   9.762e-5
1.537,   1.002e-4
1.538,   1.029e-4
1.539,   1.057e-4
1.540,   1.085e-4
1.541,   1.113e-4
1.542,   1.143e-4
1.543,   1.174e-4
1.544,   1.205e-4
1.545,   1.237e-4
1.546,   1.269e-4
1.547,   1.303e-4
1.548,   1.337e-4
1.549,   1.371e-4
1.550,   1.407e-4
1.551,   1.444e-4
1.552,   1.482e-4
1.553,   1.521e-4
1.554,   1.561e-4
1.555,   1.601e-4
1.556,   1.643e-4
1.557,   1.685e-4
1.558,   1.728e-4
1.559,   1.771e-4
1.560,   1.817e-4
1.561,   1.863e-4
1.562,   1.911e-4
1.563,   1.959e-4
1.564,   2.008e-4
1.565,   2.059e-4
1.566,   2.110e-4
1.567,   2.163e-4
1.568,   2.217e-4
1.569,   2.273e-4
1.570,   2.332e-4
1.571,   2.390e-4
1.572,   2.450e-4
1.573,   2.511e-4
1.574,   2.573e-4
1.575,   2.636e-4
1.576,   2.703e-4
1.577,   2.770e-4
1.578,   2.839e-4
1.579,   2.909e-4
1.580,   2.981e-4
1.581,   3.055e-4
1.582,   3.130e-4
1.583,   3.206e-4
1.584,   3.284e-4
1.585,   3.363e-4
1.586,   3.442e-4
1.587,   3.525e-4
1.588,   3.608e-4
1.589,   3.696e-4
1.590,   3.782e-4
1.591,   3.866e-4
1.592,   3.959e-4
1.593,   4.053e-4
1.594,   4.147e-4
1.595,   4.245e-4
1.596,   4.344e-4
1.597,   4.443e-4
1.598,   4.546e-4
1.599,   4.651e-4
1.600,   4.758e-4
1.601,   4.867e-4
1.602,   4.976e-4
1.603,   5.088e-4
1.604,   5.201e-4
1.605,   5.314e-4
1.606,   5.433e-4
1.607,   5.553e-4
1.608,   5.675e-4
1.609,   5.798e-4
1.610,   5.924e-4
1.611,   6.050e-4
1.612,   6.179e-4
1.613,   6.312e-4
1.614,   6.446e-4
1.615,   6.581e-4
1.616,   6.720e-4
1.617,   6.854e-4
1.618,   6.991e-4
1.619,   7.149e-4
1.620,   7.305e-4
1.621,   7.457e-4
1.622,   7.609e-4
1.623,   7.764e-4
1.624,   7.921e-4
1.625,   8.076e-4
1.626,   8.231e-4
1.627,   8.388e-4
1.628,   8.550e-4
1.629,   8.713e-4
1.630,   8.877e-4
1.631,   9.041e-4
1.632,   9.209e-4
1.633,   9.372e-4
1.634,   9.546e-4
1.635,   9.720e-4
1.636,   9.892e-4
1.637,   1.007e-3
1.638,   1.025e-3
1.639,   1.043e-3
1.640,   1.060e-3
1.641,   1.078e-3
1.642,   1.096e-3
1.643,   1.114e-3
1.644,   1.132e-3
1.645,   1.151e-3
1.646,   1.170e-3
1.647,   1.189e-3
1.648,   1.208e-3
1.649,   1.226e-3
1.650,   1.245e-3
1.651,   1.264e-3
1.652,   1.282e-3
1.653,   1.301e-3
1.654,   1.319e-3
1.655,   1.338e-3
1.656,   1.357e-3
1.657,   1.375e-3
1.658,   1.394e-3
1.659,   1.413e-3
1.660,   1.432e-3
1.661,   1.450e-3
1.662,   1.468e-3
1.663,   1.489e-3
1.664,   1.508e-3
1.665,   1.527e-3
1.666,   1.544e-3
1.667,   1.562e-3
1.668,   1.579e-3
1.669,   1.596e-3
1.670,   1.612e-3
1.671,   1.627e-3
1.672,   1.642e-3
1.673,   1.661e-3
1.674,   1.677e-3
1.675,   1.694e-3
1.676,   1.709e-3
1.677,   1.724e-3
1.678,   1.739e-3
1.679,   1.753e-3
1.680,   1.767e-3
1.681,   1.780e-3
1.682,   1.791e-3
1.683,   1.804e-3
1.684,   1.819e-3
1.685,   1.833e-3
1.686,   1.847e-3
1.687,   1.859e-3
1.688,   1.871e-3
1.689,   1.883e-3
1.690,   1.893e-3
1.691,   1.900e-3
1.692,   1.909e-3
1.693,   1.919e-3
1.694,   1.932e-3
1.695,   1.942e-3
1.696,   1.950e-3
1.697,   1.959e-3
1.698,   1.968e-3
1.699,   1.975e-3
1.700,   1.982e-3
1.701,   1.990e-3
1.702,   1.998e-3
1.703,   2.005e-3
1.704,   2.013e-3
1.705,   2.018e-3
1.706,   2.027e-3
1.707,   2.033e-3
1.708,   2.039e-3
1.709,   2.046e-3
1.710,   2.052e-3
1.711,   2.058e-3
1.712,   2.065e-3
1.713,   2.071e-3
1.714,   2.073e-3
1.715,   2.079e-3
1.716,   2.083e-3