File: Experimental Records, Raw Data, and Supplementary Notes and Figures/batch3/final500/B3_BEST_500_#3_Full-228mV.txt
Feb. 24, 2023   14:50:47
Linear Sweep Voltammetry
File: d:\current work\al_oer\electrochemical test data\batch 3\500\B3_BEST_500_#3_Full-228mV.txt
Data Source:  Experiment
Instrument Model:  CHI660E
Header:
Note:

Init E (V) = 1.098

Final E (V) = 1.503

Scan Rate (V/s) = 0.010
Sample Interval (V) = 0.001
Quiet Time (sec) = 2
Sensitivity (A/V) = 0.001
Comp R (ohm) = 4.7

Results:

Channel 1:

Potential/V, Current/A
1.098,   6.365e-5
1.099,   6.995e-5
1.100,   6.713e-5
1.101,   6.417e-5
1.102,   6.176e-5
1.103,   5.951e-5
1.104,   5.752e-5
1.105,   5.590e-5
1.106,   5.427e-5
1.107,   5.283e-5
1.108,   5.174e-5
1.109,   5.033e-5
1.110,   4.945e-5
1.111,   4.852e-5
1.112,   4.753e-5
1.113,   4.691e-5
1.114,   4.602e-5
1.115,   4.541e-5
1.116,   4.488e-5
1.117,   4.419e-5
1.118,   4.381e-5
1.119,   4.339e-5
1.120,   4.282e-5
1.121,   4.251e-5
1.122,   4.196e-5
1.123,   4.160e-5
1.124,   4.148e-5
1.125,   4.098e-5
1.126,   4.079e-5
1.127,   4.050e-5
1.128,   4.017e-5
1.129,   4.014e-5
1.130,   3.981e-5
1.131,   3.969e-5
1.132,   3.957e-5
1.133,   3.925e-5
1.134,   3.925e-5
1.135,   3.908e-5
1.136,   3.892e-5
1.137,   3.893e-5
1.138,   3.868e-5
1.139,   3.865e-5
1.140,   3.866e-5
1.141,   3.843e-5
1.142,   3.846e-5
1.143,   3.840e-5
1.144,   3.834e-5
1.145,   3.840e-5
1.146,   3.825e-5
1.147,   3.821e-5
1.148,   3.834e-5
1.149,   3.814e-5
1.150,   3.825e-5
1.151,   3.830e-5
1.152,   3.816e-5
1.153,   3.829e-5
1.154,   3.818e-5
1.155,   3.825e-5
1.156,   3.843e-5
1.157,   3.836e-5
1.158,   3.848e-5
1.159,   3.847e-5
1.160,   3.841e-5
1.161,   3.858e-5
1.162,   3.854e-5
1.163,   3.863e-5
1.164,   3.882e-5
1.165,   3.864e-5
1.166,   3.885e-5
1.167,   3.893e-5
1.168,   3.892e-5
1.169,   3.917e-5
1.170,   3.920e-5
1.171,   3.924e-5
1.172,   3.943e-5
1.173,   3.933e-5
1.174,   3.949e-5
1.175,   3.962e-5
1.176,   3.965e-5
1.177,   3.989e-5
1.178,   3.980e-5
1.179,   3.992e-5
1.180,   4.017e-5
1.181,   4.008e-5
1.182,   4.036e-5
1.183,   4.040e-5
1.184,   4.041e-5
1.185,   4.068e-5
1.186,   4.059e-5
1.187,   4.076e-5
1.188,   4.090e-5
1.189,   4.091e-5
1.190,   4.121e-5
1.191,   4.118e-5
1.192,   4.131e-5
1.193,   4.155e-5
1.194,   4.149e-5
1.195,   4.164e-5
1.196,   4.195e-5
1.197,   4.176e-5
1.198,   4.203e-5
1.199,   4.207e-5
1.200,   4.203e-5
1.201,   4.236e-5
1.202,   4.228e-5
1.203,   4.245e-5
1.204,   4.265e-5
1.205,   4.253e-5
1.206,   4.270e-5
1.207,   4.278e-5
1.208,   4.285e-5
1.209,   4.304e-5
1.210,   4.290e-5
1.211,   4.312e-5
1.212,   4.327e-5
1.213,   4.312e-5
1.214,   4.342e-5
1.215,   4.351e-5
1.216,   4.344e-5
1.217,   4.370e-5
1.218,   4.352e-5
1.219,   4.365e-5
1.220,   4.382e-5
1.221,   4.385e-5
1.222,   4.394e-5
1.223,   4.393e-5
1.224,   4.381e-5
1.225,   4.405e-5
1.226,   4.394e-5
1.227,   4.411e-5
1.228,   4.423e-5
1.229,   4.400e-5
1.230,   4.422e-5
1.231,   4.424e-5
1.232,   4.418e-5
1.233,   4.432e-5
1.234,   4.431e-5
1.235,   4.426e-5
1.236,   4.442e-5
1.237,   4.423e-5
1.238,   4.447e-5
1.239,   4.441e-5
1.240,   4.439e-5
1.241,   4.458e-5
1.242,   4.440e-5
1.243,   4.437e-5
1.244,   4.466e-5
1.245,   4.433e-5
1.246,   4.459e-5
1.247,   4.464e-5
1.248,   4.446e-5
1.249,   4.464e-5
1.250,   4.452e-5
1.251,   4.457e-5
1.252,   4.473e-5
1.253,   4.451e-5
1.254,   4.465e-5
1.255,   4.459e-5
1.256,   4.461e-5
1.257,   4.469e-5
1.258,   4.451e-5
1.259,   4.469e-5
1.260,   4.479e-5
1.261,   4.448e-5
1.262,   4.472e-5
1.263,   4.470e-5
1.264,   4.458e-5
1.265,   4.482e-5
1.266,   4.469e-5
1.267,   4.464e-5
1.268,   4.486e-5
1.269,   4.464e-5
1.270,   4.470e-5
1.271,   4.476e-5
1.272,   4.479e-5
1.273,   4.490e-5
1.274,   4.478e-5
1.275,   4.479e-5
1.276,   4.495e-5
1.277,   4.471e-5
1.278,   4.485e-5
1.279,   4.493e-5
1.280,   4.483e-5
1.281,   4.509e-5
1.282,   4.485e-5
1.283,   4.493e-5
1.284,   4.503e-5
1.285,   4.495e-5
1.286,   4.506e-5
1.287,   4.507e-5
1.288,   4.494e-5
1.289,   4.527e-5
1.290,   4.513e-5
1.291,   4.522e-5
1.292,   4.538e-5
1.293,   4.511e-5
1.294,   4.536e-5
1.295,   4.542e-5
1.296,   4.535e-5
1.297,   4.552e-5
1.298,   4.536e-5
1.299,   4.543e-5
1.300,   4.563e-5
1.301,   4.550e-5
1.302,   4.568e-5
1.303,   4.570e-5
1.304,   4.566e-5
1.305,   4.587e-5
1.306,   4.576e-5
1.307,   4.577e-5
1.308,   4.600e-5
1.309,   4.581e-5
1.310,   4.619e-5
1.311,   4.621e-5
1.312,   4.602e-5
1.313,   4.642e-5
1.314,   4.626e-5
1.315,   4.639e-5
1.316,   4.659e-5
1.317,   4.652e-5
1.318,   4.664e-5
1.319,   4.665e-5
1.320,   4.674e-5
1.321,   4.692e-5
1.322,   4.689e-5
1.323,   4.711e-5
1.324,   4.732e-5
1.325,   4.719e-5
1.326,   4.731e-5
1.327,   4.751e-5
1.328,   4.736e-5
1.329,   4.783e-5
1.330,   4.766e-5
1.331,   4.774e-5
1.332,   4.805e-5
1.333,   4.796e-5
1.334,   4.829e-5
1.335,   4.824e-5
1.336,   4.833e-5
1.337,   4.861e-5
1.338,   4.856e-5
1.339,   4.874e-5
1.340,   4.898e-5
1.341,   4.886e-5
1.342,   4.929e-5
1.343,   4.937e-5
1.344,   4.943e-5
1.345,   4.976e-5
1.346,   4.975e-5
1.347,   4.993e-5
1.348,   5.033e-5
1.349,   5.034e-5
1.350,   5.056e-5
1.351,   5.073e-5
1.352,   5.088e-5
1.353,   5.124e-5
1.354,   5.120e-5
1.355,   5.149e-5
1.356,   5.192e-5
1.357,   5.181e-5
1.358,   5.233e-5
1.359,   5.248e-5
1.360,   5.270e-5
1.361,   5.316e-5
1.362,   5.331e-5
1.363,   5.365e-5
1.364,   5.403e-5
1.365,   5.415e-5
1.366,   5.456e-5
1.367,   5.508e-5
1.368,   5.539e-5
1.369,   5.595e-5
1.370,   5.619e-5
1.371,   5.669e-5
1.372,   5.736e-5
1.373,   5.766e-5
1.374,   5.841e-5
1.375,   5.899e-5
1.376,   5.946e-5
1.377,   6.039e-5
1.378,   6.080e-5
1.379,   6.156e-5
1.380,   6.263e-5
1.381,   6.322e-5
1.382,   6.438e-5
1.383,   6.524e-5
1.384,   6.616e-5
1.385,   6.750e-5
1.386,   6.847e-5
1.387,   6.991e-5
1.388,   7.148e-5
1.389,   7.263e-5
1.390,   7.436e-5
1.391,   7.620e-5
1.392,   7.774e-5
1.393,   7.998e-5
1.394,   8.182e-5
1.395,   8.403e-5
1.396,   8.676e-5
1.397,   8.896e-5
1.398,   9.186e-5
1.399,   9.468e-5
1.400,   9.785e-5
1.401,   1.014e-4
1.402,   1.047e-4
1.403,   1.086e-4
1.404,   1.128e-4
1.405,   1.169e-4
1.406,   1.218e-4
1.407,   1.269e-4
1.408,   1.321e-4
1.409,   1.381e-4
1.410,   1.436e-4
1.411,   1.502e-4
1.412,   1.575e-4
1.413,   1.647e-4
1.414,   1.727e-4
1.415,   1.810e-4
1.416,   1.899e-4
1.417,   1.995e-4
1.418,   2.094e-4
1.419,   2.202e-4
1.420,   2.321e-4
1.421,   2.438e-4
1.422,   2.570e-4
1.423,   2.707e-4
1.424,   2.854e-4
1.425,   3.015e-4
1.426,   3.183e-4
1.427,   3.357e-4
1.428,   3.545e-4
1.429,   3.740e-4
1.430,   3.955e-4
1.431,   4.178e-4
1.432,   4.415e-4
1.433,   4.671e-4
1.434,   4.933e-4
1.435,   5.217e-4
1.436,   5.519e-4
1.437,   5.832e-4
1.438,   6.173e-4
1.439,   6.529e-4
1.440,   6.903e-4
1.441,   7.304e-4
1.442,   7.719e-4
1.443,   8.163e-4
1.444,   8.631e-4
1.445,   9.123e-4
1.446,   9.647e-4
1.447,   1.019e-3
1.448,   1.077e-3
1.449,   1.138e-3
1.450,   1.201e-3
1.451,   1.269e-3
1.452,   1.341e-3
1.453,   1.414e-3
1.454,   1.493e-3
1.455,   1.575e-3
1.456,   1.661e-3
1.457,   1.751e-3
1.458,   1.845e-3
1.459,   1.944e-3
1.460,   2.048e-3
1.461,   2.156e-3
1.462,   2.270e-3
1.463,   2.390e-3
1.464,   2.515e-3
1.465,   2.645e-3
1.466,   2.779e-3
1.467,   2.920e-3
1.468,   3.068e-3
1.469,   3.220e-3
1.470,   3.378e-3
1.471,   3.545e-3
1.472,   3.717e-3
1.473,   3.900e-3
1.474,   4.087e-3
1.475,   4.279e-3
1.476,   4.477e-3
1.477,   4.687e-3
1.478,   4.906e-3
1.479,   5.134e-3
1.480,   5.368e-3
1.481,   5.605e-3
1.482,   5.843e-3
1.483,   6.083e-3
1.484,   6.337e-3
1.485,   6.608e-3
1.486,   6.887e-3
1.487,   7.168e-3
1.488,   7.450e-3
1.489,   7.728e-3
1.490,   8.030e-3
1.491,   8.347e-3
1.492,   8.655e-3
1.493,   8.961e-3
1.494,   9.255e-3
1.495,   9.634e-3
1.496,   9.985e-3
1.497,   1.007e-2
1.498,   1.007e-2
1.499,   1.007e-2
1.500,   1.007e-2
1.501,   1.007e-2
1.502,   1.007e-2
1.503,   1.007e-2