File: Experimental Records, Raw Data, and Supplementary Notes and Figures/batch3/final500/B3_BEST_500_#5_Full-184mV.txt
Feb. 22, 2023   13:22:16
Linear Sweep Voltammetry
File: d:\current work\al_oer\electrochemical test data\batch 3\500\B3_BEST_500_#5_Full-184mV.txt
Data Source:  Experiment
Instrument Model:  CHI660E
Header:
Note:

Init E (V) = 1.099

Final E (V) = 1.448

Scan Rate (V/s) = 0.010
Sample Interval (V) = 0.001
Quiet Time (sec) = 2
Sensitivity (A/V) = 0.001
Comp R (ohm) = 5.6

Results:

Channel 1:

Potential/V, Current/A
1.099,   2.992e-4
1.100,   3.044e-4
1.101,   2.827e-4
1.102,   2.619e-4
1.103,   2.454e-4
1.104,   2.312e-4
1.105,   2.193e-4
1.106,   2.101e-4
1.107,   2.018e-4
1.108,   1.946e-4
1.109,   1.887e-4
1.110,   1.830e-4
1.111,   1.786e-4
1.112,   1.743e-4
1.113,   1.707e-4
1.114,   1.675e-4
1.115,   1.641e-4
1.116,   1.617e-4
1.117,   1.595e-4
1.118,   1.568e-4
1.119,   1.554e-4
1.120,   1.541e-4
1.121,   1.516e-4
1.122,   1.504e-4
1.123,   1.485e-4
1.124,   1.476e-4
1.125,   1.466e-4
1.126,   1.453e-4
1.127,   1.444e-4
1.128,   1.434e-4
1.129,   1.426e-4
1.130,   1.421e-4
1.131,   1.410e-4
1.132,   1.408e-4
1.133,   1.404e-4
1.134,   1.393e-4
1.135,   1.391e-4
1.136,   1.386e-4
1.137,   1.378e-4
1.138,   1.380e-4
1.139,   1.373e-4
1.140,   1.367e-4
1.141,   1.368e-4
1.142,   1.362e-4
1.143,   1.363e-4
1.144,   1.358e-4
1.145,   1.357e-4
1.146,   1.358e-4
1.147,   1.351e-4
1.148,   1.351e-4
1.149,   1.352e-4
1.150,   1.345e-4
1.151,   1.348e-4
1.152,   1.348e-4
1.153,   1.345e-4
1.154,   1.349e-4
1.155,   1.342e-4
1.156,   1.344e-4
1.157,   1.346e-4
1.158,   1.346e-4
1.159,   1.345e-4
1.160,   1.343e-4
1.161,   1.343e-4
1.162,   1.346e-4
1.163,   1.341e-4
1.164,   1.346e-4
1.165,   1.350e-4
1.166,   1.340e-4
1.167,   1.348e-4
1.168,   1.348e-4
1.169,   1.345e-4
1.170,   1.348e-4
1.171,   1.349e-4
1.172,   1.350e-4
1.173,   1.353e-4
1.174,   1.350e-4
1.175,   1.354e-4
1.176,   1.353e-4
1.177,   1.353e-4
1.178,   1.359e-4
1.179,   1.355e-4
1.180,   1.359e-4
1.181,   1.366e-4
1.182,   1.360e-4
1.183,   1.361e-4
1.184,   1.360e-4
1.185,   1.369e-4
1.186,   1.374e-4
1.187,   1.353e-4
1.188,   1.376e-4
1.189,   1.375e-4
1.190,   1.363e-4
1.191,   1.391e-4
1.192,   1.356e-4
1.193,   1.393e-4
1.194,   1.363e-4
1.195,   1.395e-4
1.196,   1.370e-4
1.197,   1.389e-4
1.198,   1.397e-4
1.199,   1.366e-4
1.200,   1.399e-4
1.201,   1.404e-4
1.202,   1.380e-4
1.203,   1.385e-4
1.204,   1.411e-4
1.205,   1.413e-4
1.206,   1.393e-4
1.207,   1.393e-4
1.208,   1.393e-4
1.209,   1.396e-4
1.210,   1.408e-4
1.211,   1.416e-4
1.212,   1.401e-4
1.213,   1.419e-4
1.214,   1.412e-4
1.215,   1.413e-4
1.216,   1.442e-4
1.217,   1.425e-4
1.218,   1.473e-4
1.219,   1.409e-4
1.220,   1.411e-4
1.221,   1.372e-4
1.222,   1.430e-4
1.223,   1.451e-4
1.224,   1.473e-4
1.225,   1.422e-4
1.226,   1.382e-4
1.227,   1.449e-4
1.228,   1.451e-4
1.229,   1.505e-4
1.230,   1.375e-4
1.231,   1.423e-4
1.232,   1.507e-4
1.233,   1.445e-4
1.234,   1.437e-4
1.235,   1.430e-4
1.236,   1.486e-4
1.237,   1.489e-4
1.238,   1.390e-4
1.239,   1.479e-4
1.240,   1.517e-4
1.241,   1.410e-4
1.242,   1.466e-4
1.243,   1.507e-4
1.244,   1.439e-4
1.245,   1.501e-4
1.246,   1.450e-4
1.247,   1.445e-4
1.248,   1.584e-4
1.249,   1.413e-4
1.250,   1.452e-4
1.251,   1.537e-4
1.252,   1.449e-4
1.253,   1.578e-4
1.254,   1.402e-4
1.255,   1.503e-4
1.256,   1.489e-4
1.257,   1.502e-4
1.258,   1.574e-4
1.259,   1.445e-4
1.260,   1.552e-4
1.261,   1.409e-4
1.262,   1.567e-4
1.263,   1.437e-4
1.264,   1.615e-4
1.265,   1.459e-4
1.266,   1.610e-4
1.267,   1.435e-4
1.268,   1.556e-4
1.269,   1.464e-4
1.270,   1.525e-4
1.271,   1.545e-4
1.272,   1.488e-4
1.273,   1.623e-4
1.274,   1.468e-4
1.275,   1.622e-4
1.276,   1.509e-4
1.277,   1.530e-4
1.278,   1.610e-4
1.279,   1.470e-4
1.280,   1.609e-4
1.281,   1.554e-4
1.282,   1.488e-4
1.283,   1.634e-4
1.284,   1.529e-4
1.285,   1.495e-4
1.286,   1.639e-4
1.287,   1.549e-4
1.288,   1.491e-4
1.289,   1.625e-4
1.290,   1.623e-4
1.291,   1.536e-4
1.292,   1.572e-4
1.293,   1.689e-4
1.294,   1.581e-4
1.295,   1.525e-4
1.296,   1.549e-4
1.297,   1.665e-4
1.298,   1.631e-4
1.299,   1.601e-4
1.300,   1.557e-4
1.301,   1.626e-4
1.302,   1.656e-4
1.303,   1.641e-4
1.304,   1.638e-4
1.305,   1.589e-4
1.306,   1.571e-4
1.307,   1.649e-4
1.308,   1.718e-4
1.309,   1.685e-4
1.310,   1.630e-4
1.311,   1.666e-4
1.312,   1.682e-4
1.313,   1.628e-4
1.314,   1.622e-4
1.315,   1.671e-4
1.316,   1.667e-4
1.317,   1.676e-4
1.318,   1.724e-4
1.319,   1.700e-4
1.320,   1.697e-4
1.321,   1.733e-4
1.322,   1.704e-4
1.323,   1.732e-4
1.324,   1.734e-4
1.325,   1.741e-4
1.326,   1.759e-4
1.327,   1.745e-4
1.328,   1.798e-4
1.329,   1.791e-4
1.330,   1.836e-4
1.331,   1.791e-4
1.332,   1.783e-4
1.333,   1.737e-4
1.334,   1.786e-4
1.335,   1.793e-4
1.336,   1.859e-4
1.337,   1.901e-4
1.338,   1.907e-4
1.339,   1.786e-4
1.340,   1.805e-4
1.341,   1.910e-4
1.342,   1.964e-4
1.343,   1.938e-4
1.344,   1.817e-4
1.345,   1.926e-4
1.346,   2.057e-4
1.347,   1.939e-4
1.348,   1.871e-4
1.349,   2.087e-4
1.350,   2.056e-4
1.351,   1.902e-4
1.352,   2.132e-4
1.353,   2.090e-4
1.354,   1.977e-4
1.355,   2.236e-4
1.356,   2.038e-4
1.357,   2.183e-4
1.358,   2.240e-4
1.359,   2.092e-4
1.360,   2.382e-4
1.361,   2.104e-4
1.362,   2.454e-4
1.363,   2.184e-4
1.364,   2.518e-4
1.365,   2.257e-4
1.366,   2.597e-4
1.367,   2.324e-4
1.368,   2.695e-4
1.369,   2.433e-4
1.370,   2.742e-4
1.371,   2.641e-4
1.372,   2.691e-4
1.373,   2.950e-4
1.374,   2.706e-4
1.375,   3.049e-4
1.376,   3.063e-4
1.377,   2.966e-4
1.378,   3.332e-4
1.379,   3.305e-4
1.380,   3.250e-4
1.381,   3.593e-4
1.382,   3.716e-4
1.383,   3.632e-4
1.384,   3.826e-4
1.385,   4.157e-4
1.386,   4.254e-4
1.387,   4.251e-4
1.388,   4.462e-4
1.389,   4.793e-4
1.390,   5.054e-4
1.391,   5.214e-4
1.392,   5.342e-4
1.393,   5.582e-4
1.394,   5.931e-4
1.395,   6.294e-4
1.396,   6.652e-4
1.397,   6.995e-4
1.398,   7.325e-4
1.399,   7.693e-4
1.400,   8.083e-4
1.401,   8.531e-4
1.402,   9.031e-4
1.403,   9.542e-4
1.404,   1.011e-3
1.405,   1.071e-3
1.406,   1.134e-3
1.407,   1.203e-3
1.408,   1.274e-3
1.409,   1.350e-3
1.410,   1.433e-3
1.411,   1.520e-3
1.412,   1.612e-3
1.413,   1.709e-3
1.414,   1.811e-3
1.415,   1.916e-3
1.416,   2.024e-3
1.417,   2.145e-3
1.418,   2.282e-3
1.419,   2.431e-3
1.420,   2.575e-3
1.421,   2.704e-3
1.422,   2.855e-3
1.423,   3.056e-3
1.424,   3.221e-3
1.425,   3.425e-3
1.426,   3.689e-3
1.427,   3.923e-3
1.428,   4.161e-3
1.429,   4.458e-3
1.430,   4.760e-3
1.431,   5.056e-3
1.432,   5.366e-3
1.433,   5.722e-3
1.434,   6.114e-3
1.435,   6.544e-3
1.436,   6.944e-3
1.437,   7.358e-3
1.438,   7.835e-3
1.439,   8.378e-3
1.440,   8.864e-3
1.441,   9.354e-3
1.442,   9.900e-3
1.443,   1.006e-2
1.444,   1.006e-2
1.445,   1.006e-2
1.446,   1.006e-2
1.447,   1.006e-2
1.448,   1.006e-2