File: Experimental Records, Raw Data, and Supplementary Notes and Figures/batch3/final500/B3_BEST_500_#1_High_Quality(#14)-194mV.txt
Feb. 22, 2023   14:43:49
Linear Sweep Voltammetry
File: d:\current work\al_oer\electrochemical test data\batch 3\500\B3_BEST_500_#1_High_Quality(#14)-194mV.txt
Data Source:  Experiment
Instrument Model:  CHI660E
Header:
Note:

Init E (V) = 1.098

Final E (V) = 1.456

Scan Rate (V/s) = 0.010
Sample Interval (V) = 0.001
Quiet Time (sec) = 2
Sensitivity (A/V) = 0.001
Comp R (ohm) = 5.1

Results:

Channel 1:

Potential/V, Current/A
1.098,   2.198e-4
1.099,   2.531e-4
1.100,   2.415e-4
1.101,   2.191e-4
1.102,   2.023e-4
1.103,   1.983e-4
1.104,   1.999e-4
1.105,   1.971e-4
1.106,   1.864e-4
1.107,   1.710e-4
1.108,   1.646e-4
1.109,   1.683e-4
1.110,   1.694e-4
1.111,   1.598e-4
1.112,   1.556e-4
1.113,   1.651e-4
1.114,   1.639e-4
1.115,   1.495e-4
1.116,   1.494e-4
1.117,   1.593e-4
1.118,   1.520e-4
1.119,   1.422e-4
1.120,   1.516e-4
1.121,   1.515e-4
1.122,   1.377e-4
1.123,   1.467e-4
1.124,   1.495e-4
1.125,   1.358e-4
1.126,   1.473e-4
1.127,   1.462e-4
1.128,   1.341e-4
1.129,   1.491e-4
1.130,   1.382e-4
1.131,   1.359e-4
1.132,   1.464e-4
1.133,   1.298e-4
1.134,   1.435e-4
1.135,   1.352e-4
1.136,   1.368e-4
1.137,   1.435e-4
1.138,   1.357e-4
1.139,   1.490e-4
1.140,   1.373e-4
1.141,   1.482e-4
1.142,   1.291e-4
1.143,   1.397e-4
1.144,   1.293e-4
1.145,   1.449e-4
1.146,   1.377e-4
1.147,   1.501e-4
1.148,   1.353e-4
1.149,   1.364e-4
1.150,   1.287e-4
1.151,   1.476e-4
1.152,   1.407e-4
1.153,   1.473e-4
1.154,   1.272e-4
1.155,   1.361e-4
1.156,   1.468e-4
1.157,   1.435e-4
1.158,   1.388e-4
1.159,   1.269e-4
1.160,   1.507e-4
1.161,   1.464e-4
1.162,   1.284e-4
1.163,   1.412e-4
1.164,   1.472e-4
1.165,   1.408e-4
1.166,   1.323e-4
1.167,   1.452e-4
1.168,   1.479e-4
1.169,   1.314e-4
1.170,   1.437e-4
1.171,   1.503e-4
1.172,   1.313e-4
1.173,   1.465e-4
1.174,   1.457e-4
1.175,   1.332e-4
1.176,   1.535e-4
1.177,   1.358e-4
1.178,   1.394e-4
1.179,   1.581e-4
1.180,   1.266e-4
1.181,   1.496e-4
1.182,   1.470e-4
1.183,   1.368e-4
1.184,   1.553e-4
1.185,   1.285e-4
1.186,   1.590e-4
1.187,   1.375e-4
1.188,   1.453e-4
1.189,   1.464e-4
1.190,   1.377e-4
1.191,   1.599e-4
1.192,   1.315e-4
1.193,   1.589e-4
1.194,   1.287e-4
1.195,   1.616e-4
1.196,   1.336e-4
1.197,   1.612e-4
1.198,   1.328e-4
1.199,   1.568e-4
1.200,   1.340e-4
1.201,   1.592e-4
1.202,   1.365e-4
1.203,   1.594e-4
1.204,   1.361e-4
1.205,   1.581e-4
1.206,   1.334e-4
1.207,   1.612e-4
1.208,   1.330e-4
1.209,   1.654e-4
1.210,   1.324e-4
1.211,   1.643e-4
1.212,   1.323e-4
1.213,   1.601e-4
1.214,   1.367e-4
1.215,   1.551e-4
1.216,   1.462e-4
1.217,   1.471e-4
1.218,   1.567e-4
1.219,   1.378e-4
1.220,   1.640e-4
1.221,   1.321e-4
1.222,   1.641e-4
1.223,   1.342e-4
1.224,   1.569e-4
1.225,   1.457e-4
1.226,   1.461e-4
1.227,   1.594e-4
1.228,   1.365e-4
1.229,   1.660e-4
1.230,   1.335e-4
1.231,   1.617e-4
1.232,   1.416e-4
1.233,   1.483e-4
1.234,   1.565e-4
1.235,   1.354e-4
1.236,   1.656e-4
1.237,   1.333e-4
1.238,   1.619e-4
1.239,   1.428e-4
1.240,   1.487e-4
1.241,   1.589e-4
1.242,   1.353e-4
1.243,   1.658e-4
1.244,   1.336e-4
1.245,   1.588e-4
1.246,   1.442e-4
1.247,   1.446e-4
1.248,   1.591e-4
1.249,   1.342e-4
1.250,   1.656e-4
1.251,   1.349e-4
1.252,   1.577e-4
1.253,   1.482e-4
1.254,   1.431e-4
1.255,   1.617e-4
1.256,   1.329e-4
1.257,   1.648e-4
1.258,   1.344e-4
1.259,   1.553e-4
1.260,   1.477e-4
1.261,   1.410e-4
1.262,   1.615e-4
1.263,   1.331e-4
1.264,   1.655e-4
1.265,   1.354e-4
1.266,   1.584e-4
1.267,   1.458e-4
1.268,   1.437e-4
1.269,   1.578e-4
1.270,   1.331e-4
1.271,   1.633e-4
1.272,   1.325e-4
1.273,   1.614e-4
1.274,   1.400e-4
1.275,   1.508e-4
1.276,   1.525e-4
1.277,   1.388e-4
1.278,   1.617e-4
1.279,   1.312e-4
1.280,   1.632e-4
1.281,   1.323e-4
1.282,   1.592e-4
1.283,   1.400e-4
1.284,   1.500e-4
1.285,   1.513e-4
1.286,   1.407e-4
1.287,   1.603e-4
1.288,   1.322e-4
1.289,   1.637e-4
1.290,   1.299e-4
1.291,   1.616e-4
1.292,   1.348e-4
1.293,   1.560e-4
1.294,   1.442e-4
1.295,   1.482e-4
1.296,   1.522e-4
1.297,   1.395e-4
1.298,   1.586e-4
1.299,   1.321e-4
1.300,   1.626e-4
1.301,   1.299e-4
1.302,   1.634e-4
1.303,   1.348e-4
1.304,   1.603e-4
1.305,   1.401e-4
1.306,   1.515e-4
1.307,   1.466e-4
1.308,   1.427e-4
1.309,   1.547e-4
1.310,   1.360e-4
1.311,   1.635e-4
1.312,   1.327e-4
1.313,   1.657e-4
1.314,   1.324e-4
1.315,   1.616e-4
1.316,   1.382e-4
1.317,   1.534e-4
1.318,   1.472e-4
1.319,   1.438e-4
1.320,   1.584e-4
1.321,   1.365e-4
1.322,   1.659e-4
1.323,   1.345e-4
1.324,   1.658e-4
1.325,   1.381e-4
1.326,   1.555e-4
1.327,   1.501e-4
1.328,   1.418e-4
1.329,   1.638e-4
1.330,   1.341e-4
1.331,   1.671e-4
1.332,   1.394e-4
1.333,   1.567e-4
1.334,   1.569e-4
1.335,   1.408e-4
1.336,   1.691e-4
1.337,   1.384e-4
1.338,   1.615e-4
1.339,   1.553e-4
1.340,   1.427e-4
1.341,   1.702e-4
1.342,   1.416e-4
1.343,   1.582e-4
1.344,   1.646e-4
1.345,   1.403e-4
1.346,   1.687e-4
1.347,   1.572e-4
1.348,   1.460e-4
1.349,   1.742e-4
1.350,   1.543e-4
1.351,   1.499e-4
1.352,   1.763e-4
1.353,   1.571e-4
1.354,   1.511e-4
1.355,   1.775e-4
1.356,   1.655e-4
1.357,   1.509e-4
1.358,   1.740e-4
1.359,   1.782e-4
1.360,   1.559e-4
1.361,   1.635e-4
1.362,   1.840e-4
1.363,   1.766e-4
1.364,   1.615e-4
1.365,   1.713e-4
1.366,   1.902e-4
1.367,   1.883e-4
1.368,   1.741e-4
1.369,   1.744e-4
1.370,   1.866e-4
1.371,   1.991e-4
1.372,   1.997e-4
1.373,   1.915e-4
1.374,   1.900e-4
1.375,   1.961e-4
1.376,   2.049e-4
1.377,   2.159e-4
1.378,   2.227e-4
1.379,   2.250e-4
1.380,   2.253e-4
1.381,   2.287e-4
1.382,   2.348e-4
1.383,   2.392e-4
1.384,   2.456e-4
1.385,   2.569e-4
1.386,   2.642e-4
1.387,   2.737e-4
1.388,   2.869e-4
1.389,   2.956e-4
1.390,   3.083e-4
1.391,   3.233e-4
1.392,   3.347e-4
1.393,   3.507e-4
1.394,   3.640e-4
1.395,   3.756e-4
1.396,   3.901e-4
1.397,   4.036e-4
1.398,   4.296e-4
1.399,   4.590e-4
1.400,   4.943e-4
1.401,   5.160e-4
1.402,   5.271e-4
1.403,   5.448e-4
1.404,   5.926e-4
1.405,   6.451e-4
1.406,   6.658e-4
1.407,   6.791e-4
1.408,   7.453e-4
1.409,   8.037e-4
1.410,   8.098e-4
1.411,   8.766e-4
1.412,   9.518e-4
1.413,   9.604e-4
1.414,   1.057e-3
1.415,   1.114e-3
1.416,   1.153e-3
1.417,   1.275e-3
1.418,   1.287e-3
1.419,   1.426e-3
1.420,   1.452e-3
1.421,   1.593e-3
1.422,   1.634e-3
1.423,   1.795e-3
1.424,   1.830e-3
1.425,   2.005e-3
1.426,   2.062e-3
1.427,   2.226e-3
1.428,   2.347e-3
1.429,   2.450e-3
1.430,   2.644e-3
1.431,   2.761e-3
1.432,   2.899e-3
1.433,   3.104e-3
1.434,   3.287e-3
1.435,   3.432e-3
1.436,   3.616e-3
1.437,   3.824e-3
1.438,   4.055e-3
1.439,   4.339e-3
1.440,   4.642e-3
1.441,   4.940e-3
1.442,   5.219e-3
1.443,   5.544e-3
1.444,   5.933e-3
1.445,   6.301e-3
1.446,   6.635e-3
1.447,   7.084e-3
1.448,   7.471e-3
1.449,   7.907e-3
1.450,   8.350e-3
1.451,   8.808e-3
1.452,   9.336e-3
1.453,   9.794e-3
1.454,   1.005e-2
1.455,   1.006e-2
1.456,   1.006e-2