File: Experimental Records, Raw Data, and Supplementary Notes and Figures/batch3/final500/B3_BEST_500_#1_Full-244mV.txt
Feb. 22, 2023   12:48:57
Linear Sweep Voltammetry
File: d:\current work\al_oer\electrochemical test data\batch 3\500\B3_BEST_500_#1_Full-244mV.txt
Data Source:  Experiment
Instrument Model:  CHI660E
Header:
Note:

Init E (V) = 1.099

Final E (V) = 1.525

Scan Rate (V/s) = 0.010
Sample Interval (V) = 0.001
Quiet Time (sec) = 2
Sensitivity (A/V) = 0.001
Comp R (ohm) = 5.2

Results:

Channel 1:

Potential/V, Current/A
1.099,   7.934e-5
1.100,   8.469e-5
1.101,   8.129e-5
1.102,   7.777e-5
1.103,   7.473e-5
1.104,   7.191e-5
1.105,   6.936e-5
1.106,   6.725e-5
1.107,   6.522e-5
1.108,   6.334e-5
1.109,   6.177e-5
1.110,   6.005e-5
1.111,   5.880e-5
1.112,   5.750e-5
1.113,   5.631e-5
1.114,   5.535e-5
1.115,   5.422e-5
1.116,   5.339e-5
1.117,   5.258e-5
1.118,   5.159e-5
1.119,   5.114e-5
1.120,   5.045e-5
1.121,   4.960e-5
1.122,   4.912e-5
1.123,   4.846e-5
1.124,   4.797e-5
1.125,   4.753e-5
1.126,   4.702e-5
1.127,   4.667e-5
1.128,   4.627e-5
1.129,   4.580e-5
1.130,   4.560e-5
1.131,   4.513e-5
1.132,   4.496e-5
1.133,   4.477e-5
1.134,   4.431e-5
1.135,   4.417e-5
1.136,   4.399e-5
1.137,   4.359e-5
1.138,   4.361e-5
1.139,   4.336e-5
1.140,   4.321e-5
1.141,   4.314e-5
1.142,   4.287e-5
1.143,   4.282e-5
1.144,   4.268e-5
1.145,   4.266e-5
1.146,   4.257e-5
1.147,   4.233e-5
1.148,   4.230e-5
1.149,   4.235e-5
1.150,   4.211e-5
1.151,   4.223e-5
1.152,   4.213e-5
1.153,   4.205e-5
1.154,   4.214e-5
1.155,   4.198e-5
1.156,   4.200e-5
1.157,   4.208e-5
1.158,   4.206e-5
1.159,   4.208e-5
1.160,   4.210e-5
1.161,   4.203e-5
1.162,   4.216e-5
1.163,   4.203e-5
1.164,   4.221e-5
1.165,   4.232e-5
1.166,   4.214e-5
1.167,   4.235e-5
1.168,   4.239e-5
1.169,   4.233e-5
1.170,   4.262e-5
1.171,   4.264e-5
1.172,   4.268e-5
1.173,   4.277e-5
1.174,   4.271e-5
1.175,   4.291e-5
1.176,   4.294e-5
1.177,   4.303e-5
1.178,   4.321e-5
1.179,   4.312e-5
1.180,   4.328e-5
1.181,   4.344e-5
1.182,   4.330e-5
1.183,   4.366e-5
1.184,   4.377e-5
1.185,   4.366e-5
1.186,   4.388e-5
1.187,   4.389e-5
1.188,   4.404e-5
1.189,   4.426e-5
1.190,   4.419e-5
1.191,   4.433e-5
1.192,   4.441e-5
1.193,   4.446e-5
1.194,   4.468e-5
1.195,   4.462e-5
1.196,   4.481e-5
1.197,   4.504e-5
1.198,   4.490e-5
1.199,   4.516e-5
1.200,   4.525e-5
1.201,   4.525e-5
1.202,   4.543e-5
1.203,   4.548e-5
1.204,   4.552e-5
1.205,   4.572e-5
1.206,   4.558e-5
1.207,   4.571e-5
1.208,   4.581e-5
1.209,   4.597e-5
1.210,   4.614e-5
1.211,   4.595e-5
1.212,   4.608e-5
1.213,   4.630e-5
1.214,   4.608e-5
1.215,   4.632e-5
1.216,   4.631e-5
1.217,   4.633e-5
1.218,   4.655e-5
1.219,   4.647e-5
1.220,   4.650e-5
1.221,   4.669e-5
1.222,   4.654e-5
1.223,   4.670e-5
1.224,   4.677e-5
1.225,   4.661e-5
1.226,   4.687e-5
1.227,   4.671e-5
1.228,   4.682e-5
1.229,   4.695e-5
1.230,   4.674e-5
1.231,   4.684e-5
1.232,   4.691e-5
1.233,   4.678e-5
1.234,   4.694e-5
1.235,   4.698e-5
1.236,   4.683e-5
1.237,   4.706e-5
1.238,   4.674e-5
1.239,   4.692e-5
1.240,   4.689e-5
1.241,   4.688e-5
1.242,   4.696e-5
1.243,   4.681e-5
1.244,   4.682e-5
1.245,   4.694e-5
1.246,   4.669e-5
1.247,   4.686e-5
1.248,   4.685e-5
1.249,   4.663e-5
1.250,   4.686e-5
1.251,   4.670e-5
1.252,   4.672e-5
1.253,   4.676e-5
1.254,   4.661e-5
1.255,   4.668e-5
1.256,   4.664e-5
1.257,   4.655e-5
1.258,   4.667e-5
1.259,   4.642e-5
1.260,   4.659e-5
1.261,   4.669e-5
1.262,   4.629e-5
1.263,   4.643e-5
1.264,   4.643e-5
1.265,   4.634e-5
1.266,   4.645e-5
1.267,   4.633e-5
1.268,   4.633e-5
1.269,   4.643e-5
1.270,   4.614e-5
1.271,   4.626e-5
1.272,   4.623e-5
1.273,   4.630e-5
1.274,   4.632e-5
1.275,   4.615e-5
1.276,   4.608e-5
1.277,   4.624e-5
1.278,   4.592e-5
1.279,   4.612e-5
1.280,   4.615e-5
1.281,   4.603e-5
1.282,   4.616e-5
1.283,   4.594e-5
1.284,   4.597e-5
1.285,   4.615e-5
1.286,   4.605e-5
1.287,   4.605e-5
1.288,   4.598e-5
1.289,   4.591e-5
1.290,   4.613e-5
1.291,   4.588e-5
1.292,   4.608e-5
1.293,   4.613e-5
1.294,   4.581e-5
1.295,   4.613e-5
1.296,   4.605e-5
1.297,   4.588e-5
1.298,   4.622e-5
1.299,   4.612e-5
1.300,   4.610e-5
1.301,   4.623e-5
1.302,   4.606e-5
1.303,   4.620e-5
1.304,   4.619e-5
1.305,   4.618e-5
1.306,   4.635e-5
1.307,   4.629e-5
1.308,   4.625e-5
1.309,   4.657e-5
1.310,   4.624e-5
1.311,   4.650e-5
1.312,   4.668e-5
1.313,   4.646e-5
1.314,   4.677e-5
1.315,   4.655e-5
1.316,   4.667e-5
1.317,   4.686e-5
1.318,   4.677e-5
1.319,   4.686e-5
1.320,   4.702e-5
1.321,   4.696e-5
1.322,   4.719e-5
1.323,   4.705e-5
1.324,   4.743e-5
1.325,   4.757e-5
1.326,   4.722e-5
1.327,   4.741e-5
1.328,   4.756e-5
1.329,   4.747e-5
1.330,   4.773e-5
1.331,   4.760e-5
1.332,   4.771e-5
1.333,   4.792e-5
1.334,   4.779e-5
1.335,   4.803e-5
1.336,   4.805e-5
1.337,   4.826e-5
1.338,   4.837e-5
1.339,   4.816e-5
1.340,   4.838e-5
1.341,   4.858e-5
1.342,   4.842e-5
1.343,   4.870e-5
1.344,   4.881e-5
1.345,   4.864e-5
1.346,   4.902e-5
1.347,   4.888e-5
1.348,   4.890e-5
1.349,   4.927e-5
1.350,   4.929e-5
1.351,   4.938e-5
1.352,   4.944e-5
1.353,   4.947e-5
1.354,   4.978e-5
1.355,   4.962e-5
1.356,   4.983e-5
1.357,   5.008e-5
1.358,   4.993e-5
1.359,   5.018e-5
1.360,   5.035e-5
1.361,   5.028e-5
1.362,   5.066e-5
1.363,   5.083e-5
1.364,   5.079e-5
1.365,   5.110e-5
1.366,   5.113e-5
1.367,   5.133e-5
1.368,   5.154e-5
1.369,   5.164e-5
1.370,   5.208e-5
1.371,   5.200e-5
1.372,   5.237e-5
1.373,   5.269e-5
1.374,   5.267e-5
1.375,   5.322e-5
1.376,   5.349e-5
1.377,   5.365e-5
1.378,   5.410e-5
1.379,   5.427e-5
1.380,   5.463e-5
1.381,   5.516e-5
1.382,   5.540e-5
1.383,   5.599e-5
1.384,   5.630e-5
1.385,   5.680e-5
1.386,   5.748e-5
1.387,   5.779e-5
1.388,   5.860e-5
1.389,   5.941e-5
1.390,   5.965e-5
1.391,   6.057e-5
1.392,   6.136e-5
1.393,   6.192e-5
1.394,   6.320e-5
1.395,   6.395e-5
1.396,   6.486e-5
1.397,   6.619e-5
1.398,   6.702e-5
1.399,   6.849e-5
1.400,   6.964e-5
1.401,   7.108e-5
1.402,   7.266e-5
1.403,   7.399e-5
1.404,   7.579e-5
1.405,   7.770e-5
1.406,   7.937e-5
1.407,   8.152e-5
1.408,   8.370e-5
1.409,   8.578e-5
1.410,   8.845e-5
1.411,   9.067e-5
1.412,   9.337e-5
1.413,   9.652e-5
1.414,   9.949e-5
1.415,   1.027e-4
1.416,   1.060e-4
1.417,   1.095e-4
1.418,   1.138e-4
1.419,   1.175e-4
1.420,   1.220e-4
1.421,   1.267e-4
1.422,   1.312e-4
1.423,   1.367e-4
1.424,   1.422e-4
1.425,   1.478e-4
1.426,   1.543e-4
1.427,   1.608e-4
1.428,   1.679e-4
1.429,   1.755e-4
1.430,   1.830e-4
1.431,   1.917e-4
1.432,   2.005e-4
1.433,   2.097e-4
1.434,   2.200e-4
1.435,   2.304e-4
1.436,   2.419e-4
1.437,   2.541e-4
1.438,   2.668e-4
1.439,   2.807e-4
1.440,   2.953e-4
1.441,   3.104e-4
1.442,   3.272e-4
1.443,   3.444e-4
1.444,   3.628e-4
1.445,   3.828e-4
1.446,   4.036e-4
1.447,   4.260e-4
1.448,   4.495e-4
1.449,   4.746e-4
1.450,   5.015e-4
1.451,   5.293e-4
1.452,   5.597e-4
1.453,   5.920e-4
1.454,   6.251e-4
1.455,   6.610e-4
1.456,   6.988e-4
1.457,   7.386e-4
1.458,   7.813e-4
1.459,   8.255e-4
1.460,   8.723e-4
1.461,   9.225e-4
1.462,   9.743e-4
1.463,   1.029e-3
1.464,   1.087e-3
1.465,   1.148e-3
1.466,   1.212e-3
1.467,   1.279e-3
1.468,   1.348e-3
1.469,   1.421e-3
1.470,   1.499e-3
1.471,   1.582e-3
1.472,   1.664e-3
1.473,   1.752e-3
1.474,   1.845e-3
1.475,   1.937e-3
1.476,   2.033e-3
1.477,   2.133e-3
1.478,   2.246e-3
1.479,   2.354e-3
1.480,   2.461e-3
1.481,   2.585e-3
1.482,   2.700e-3
1.483,   2.819e-3
1.484,   2.946e-3
1.485,   3.072e-3
1.486,   3.201e-3
1.487,   3.331e-3
1.488,   3.463e-3
1.489,   3.603e-3
1.490,   3.755e-3
1.491,   3.903e-3
1.492,   4.043e-3
1.493,   4.184e-3
1.494,   4.347e-3
1.495,   4.497e-3
1.496,   4.809e-3
1.497,   5.201e-3
1.498,   5.348e-3
1.499,   5.511e-3
1.500,   5.684e-3
1.501,   5.809e-3
1.502,   5.937e-3
1.503,   6.082e-3
1.504,   6.259e-3
1.505,   6.487e-3
1.506,   6.653e-3
1.507,   6.834e-3
1.508,   7.293e-3
1.509,   7.494e-3
1.510,   7.641e-3
1.511,   7.758e-3
1.512,   7.880e-3
1.513,   7.995e-3
1.514,   8.385e-3
1.515,   8.801e-3
1.516,   8.920e-3
1.517,   9.029e-3
1.518,   9.168e-3
1.519,   9.833e-3
1.520,   1.006e-2
1.521,   1.006e-2
1.522,   1.006e-2
1.523,   1.006e-2
1.524,   1.006e-2
1.525,   1.006e-2