File: Experimental Records, Raw Data, and Supplementary Notes and Figures/batch3/final500/B3_BEST_500_#8_Full-275mV.txt
Feb. 22, 2023   13:48:28
Linear Sweep Voltammetry
File: d:\current work\al_oer\electrochemical test data\batch 3\500\B3_BEST_500_#8_Full-275mV.txt
Data Source:  Experiment
Instrument Model:  CHI660E
Header:
Note:

Init E (V) = 1.099

Final E (V) = 1.717

Scan Rate (V/s) = 0.010
Sample Interval (V) = 0.001
Quiet Time (sec) = 2
Sensitivity (A/V) = 0.001
Comp R (ohm) = 5.0

Results:

Channel 1:

Potential/V, Current/A
1.099,   5.066e-4
1.100,   4.683e-4
1.101,   4.348e-4
1.102,   4.048e-4
1.103,   3.783e-4
1.104,   3.549e-4
1.105,   3.337e-4
1.106,   3.143e-4
1.107,   2.974e-4
1.108,   2.821e-4
1.109,   2.683e-4
1.110,   2.555e-4
1.111,   2.442e-4
1.112,   2.338e-4
1.113,   2.240e-4
1.114,   2.149e-4
1.115,   2.065e-4
1.116,   1.987e-4
1.117,   1.917e-4
1.118,   1.854e-4
1.119,   1.794e-4
1.120,   1.737e-4
1.121,   1.684e-4
1.122,   1.635e-4
1.123,   1.587e-4
1.124,   1.544e-4
1.125,   1.504e-4
1.126,   1.465e-4
1.127,   1.428e-4
1.128,   1.394e-4
1.129,   1.361e-4
1.130,   1.331e-4
1.131,   1.303e-4
1.132,   1.276e-4
1.133,   1.251e-4
1.134,   1.227e-4
1.135,   1.203e-4
1.136,   1.181e-4
1.137,   1.161e-4
1.138,   1.140e-4
1.139,   1.121e-4
1.140,   1.103e-4
1.141,   1.086e-4
1.142,   1.070e-4
1.143,   1.056e-4
1.144,   1.041e-4
1.145,   1.028e-4
1.146,   1.015e-4
1.147,   1.003e-4
1.148,   9.909e-5
1.149,   9.801e-5
1.150,   9.694e-5
1.151,   9.577e-5
1.152,   9.473e-5
1.153,   9.376e-5
1.154,   9.295e-5
1.155,   9.212e-5
1.156,   9.120e-5
1.157,   9.024e-5
1.158,   8.950e-5
1.159,   8.875e-5
1.160,   8.795e-5
1.161,   8.727e-5
1.162,   8.661e-5
1.163,   8.589e-5
1.164,   8.529e-5
1.165,   8.465e-5
1.166,   8.407e-5
1.167,   8.350e-5
1.168,   8.298e-5
1.169,   8.246e-5
1.170,   8.201e-5
1.171,   8.159e-5
1.172,   8.112e-5
1.173,   8.079e-5
1.174,   8.029e-5
1.175,   7.990e-5
1.176,   7.954e-5
1.177,   7.914e-5
1.178,   7.888e-5
1.179,   7.845e-5
1.180,   7.811e-5
1.181,   7.780e-5
1.182,   7.743e-5
1.183,   7.716e-5
1.184,   7.687e-5
1.185,   7.665e-5
1.186,   7.640e-5
1.187,   7.603e-5
1.188,   7.579e-5
1.189,   7.551e-5
1.190,   7.525e-5
1.191,   7.513e-5
1.192,   7.494e-5
1.193,   7.471e-5
1.194,   7.445e-5
1.195,   7.419e-5
1.196,   7.402e-5
1.197,   7.386e-5
1.198,   7.361e-5
1.199,   7.342e-5
1.200,   7.325e-5
1.201,   7.308e-5
1.202,   7.293e-5
1.203,   7.279e-5
1.204,   7.268e-5
1.205,   7.267e-5
1.206,   7.273e-5
1.207,   7.254e-5
1.208,   7.230e-5
1.209,   7.215e-5
1.210,   7.213e-5
1.211,   7.191e-5
1.212,   7.175e-5
1.213,   7.166e-5
1.214,   7.152e-5
1.215,   7.143e-5
1.216,   7.134e-5
1.217,   7.126e-5
1.218,   7.110e-5
1.219,   7.099e-5
1.220,   7.090e-5
1.221,   7.090e-5
1.222,   7.080e-5
1.223,   7.066e-5
1.224,   7.058e-5
1.225,   7.048e-5
1.226,   7.037e-5
1.227,   7.026e-5
1.228,   7.021e-5
1.229,   7.014e-5
1.230,   7.004e-5
1.231,   7.009e-5
1.232,   7.001e-5
1.233,   6.989e-5
1.234,   6.989e-5
1.235,   6.985e-5
1.236,   6.979e-5
1.237,   6.972e-5
1.238,   6.970e-5
1.239,   6.967e-5
1.240,   6.962e-5
1.241,   6.957e-5
1.242,   6.954e-5
1.243,   6.943e-5
1.244,   6.947e-5
1.245,   6.947e-5
1.246,   6.935e-5
1.247,   6.935e-5
1.248,   6.936e-5
1.249,   6.936e-5
1.250,   6.938e-5
1.251,   6.923e-5
1.252,   6.919e-5
1.253,   6.912e-5
1.254,   6.904e-5
1.255,   6.901e-5
1.256,   6.899e-5
1.257,   6.897e-5
1.258,   6.899e-5
1.259,   6.896e-5
1.260,   6.899e-5
1.261,   6.898e-5
1.262,   6.890e-5
1.263,   6.893e-5
1.264,   6.888e-5
1.265,   6.888e-5
1.266,   6.888e-5
1.267,   6.884e-5
1.268,   6.886e-5
1.269,   6.884e-5
1.270,   6.883e-5
1.271,   6.884e-5
1.272,   6.878e-5
1.273,   6.880e-5
1.274,   6.880e-5
1.275,   6.869e-5
1.276,   6.869e-5
1.277,   6.877e-5
1.278,   6.868e-5
1.279,   6.872e-5
1.280,   6.867e-5
1.281,   6.867e-5
1.282,   6.878e-5
1.283,   6.865e-5
1.284,   6.865e-5
1.285,   6.869e-5
1.286,   6.873e-5
1.287,   6.866e-5
1.288,   6.860e-5
1.289,   6.859e-5
1.290,   6.862e-5
1.291,   6.859e-5
1.292,   6.864e-5
1.293,   6.870e-5
1.294,   6.869e-5
1.295,   6.878e-5
1.296,   6.875e-5
1.297,   6.882e-5
1.298,   6.885e-5
1.299,   6.886e-5
1.300,   6.891e-5
1.301,   6.891e-5
1.302,   6.887e-5
1.303,   6.893e-5
1.304,   6.897e-5
1.305,   6.897e-5
1.306,   6.904e-5
1.307,   6.901e-5
1.308,   6.903e-5
1.309,   6.910e-5
1.310,   6.910e-5
1.311,   6.911e-5
1.312,   6.923e-5
1.313,   6.927e-5
1.314,   6.930e-5
1.315,   6.933e-5
1.316,   6.943e-5
1.317,   6.947e-5
1.318,   6.957e-5
1.319,   6.963e-5
1.320,   6.963e-5
1.321,   6.973e-5
1.322,   6.981e-5
1.323,   6.982e-5
1.324,   7.002e-5
1.325,   7.021e-5
1.326,   7.013e-5
1.327,   7.032e-5
1.328,   7.036e-5
1.329,   7.044e-5
1.330,   7.056e-5
1.331,   7.061e-5
1.332,   7.073e-5
1.333,   7.084e-5
1.334,   7.088e-5
1.335,   7.101e-5
1.336,   7.115e-5
1.337,   7.138e-5
1.338,   7.156e-5
1.339,   7.165e-5
1.340,   7.175e-5
1.341,   7.189e-5
1.342,   7.200e-5
1.343,   7.220e-5
1.344,   7.238e-5
1.345,   7.254e-5
1.346,   7.278e-5
1.347,   7.286e-5
1.348,   7.307e-5
1.349,   7.325e-5
1.350,   7.345e-5
1.351,   7.370e-5
1.352,   7.394e-5
1.353,   7.421e-5
1.354,   7.450e-5
1.355,   7.475e-5
1.356,   7.497e-5
1.357,   7.526e-5
1.358,   7.545e-5
1.359,   7.577e-5
1.360,   7.607e-5
1.361,   7.639e-5
1.362,   7.674e-5
1.363,   7.721e-5
1.364,   7.762e-5
1.365,   7.797e-5
1.366,   7.835e-5
1.367,   7.876e-5
1.368,   7.911e-5
1.369,   7.959e-5
1.370,   8.011e-5
1.371,   8.054e-5
1.372,   8.111e-5
1.373,   8.173e-5
1.374,   8.229e-5
1.375,   8.292e-5
1.376,   8.358e-5
1.377,   8.430e-5
1.378,   8.511e-5
1.379,   8.578e-5
1.380,   8.661e-5
1.381,   8.751e-5
1.382,   8.848e-5
1.383,   8.943e-5
1.384,   9.036e-5
1.385,   9.148e-5
1.386,   9.280e-5
1.387,   9.385e-5
1.388,   9.519e-5
1.389,   9.652e-5
1.390,   9.785e-5
1.391,   9.943e-5
1.392,   1.009e-4
1.393,   1.026e-4
1.394,   1.044e-4
1.395,   1.062e-4
1.396,   1.082e-4
1.397,   1.103e-4
1.398,   1.125e-4
1.399,   1.148e-4
1.400,   1.172e-4
1.401,   1.198e-4
1.402,   1.224e-4
1.403,   1.252e-4
1.404,   1.282e-4
1.405,   1.314e-4
1.406,   1.344e-4
1.407,   1.378e-4
1.408,   1.414e-4
1.409,   1.451e-4
1.410,   1.489e-4
1.411,   1.529e-4
1.412,   1.572e-4
1.413,   1.617e-4
1.414,   1.663e-4
1.415,   1.709e-4
1.416,   1.757e-4
1.417,   1.808e-4
1.418,   1.861e-4
1.419,   1.916e-4
1.420,   1.973e-4
1.421,   2.031e-4
1.422,   2.093e-4
1.423,   2.156e-4
1.424,   2.221e-4
1.425,   2.290e-4
1.426,   2.362e-4
1.427,   2.435e-4
1.428,   2.509e-4
1.429,   2.586e-4
1.430,   2.667e-4
1.431,   2.752e-4
1.432,   2.837e-4
1.433,   2.926e-4
1.434,   3.016e-4
1.435,   3.110e-4
1.436,   3.206e-4
1.437,   3.304e-4
1.438,   3.405e-4
1.439,   3.510e-4
1.440,   3.617e-4
1.441,   3.729e-4
1.442,   3.846e-4
1.443,   3.974e-4
1.444,   4.100e-4
1.445,   4.222e-4
1.446,   4.345e-4
1.447,   4.475e-4
1.448,   4.608e-4
1.449,   4.752e-4
1.450,   4.900e-4
1.451,   5.047e-4
1.452,   5.193e-4
1.453,   5.343e-4
1.454,   5.502e-4
1.455,   5.669e-4
1.456,   5.835e-4
1.457,   6.000e-4
1.458,   6.175e-4
1.459,   6.356e-4
1.460,   6.536e-4
1.461,   6.723e-4
1.462,   6.916e-4
1.463,   7.111e-4
1.464,   7.308e-4
1.465,   7.516e-4
1.466,   7.723e-4
1.467,   7.937e-4
1.468,   8.159e-4
1.469,   8.383e-4
1.470,   8.614e-4
1.471,   8.843e-4
1.472,   9.083e-4
1.473,   9.322e-4
1.474,   9.567e-4
1.475,   9.815e-4
1.476,   1.007e-3
1.477,   1.032e-3
1.478,   1.059e-3
1.479,   1.085e-3
1.480,   1.113e-3
1.481,   1.140e-3
1.482,   1.169e-3
1.483,   1.197e-3
1.484,   1.226e-3
1.485,   1.256e-3
1.486,   1.286e-3
1.487,   1.316e-3
1.488,   1.347e-3
1.489,   1.379e-3
1.490,   1.411e-3
1.491,   1.443e-3
1.492,   1.476e-3
1.493,   1.509e-3
1.494,   1.542e-3
1.495,   1.575e-3
1.496,   1.609e-3
1.497,   1.644e-3
1.498,   1.680e-3
1.499,   1.712e-3
1.500,   1.747e-3
1.501,   1.783e-3
1.502,   1.819e-3
1.503,   1.856e-3
1.504,   1.893e-3
1.505,   1.930e-3
1.506,   1.968e-3
1.507,   2.006e-3
1.508,   2.044e-3
1.509,   2.084e-3
1.510,   2.122e-3
1.511,   2.161e-3
1.512,   2.201e-3
1.513,   2.241e-3
1.514,   2.279e-3
1.515,   2.319e-3
1.516,   2.360e-3
1.517,   2.403e-3
1.518,   2.445e-3
1.519,   2.488e-3
1.520,   2.529e-3
1.521,   2.569e-3
1.522,   2.610e-3
1.523,   2.652e-3
1.524,   2.693e-3
1.525,   2.736e-3
1.526,   2.776e-3
1.527,   2.817e-3
1.528,   2.861e-3
1.529,   2.904e-3
1.530,   2.947e-3
1.531,   2.989e-3
1.532,   3.027e-3
1.533,   3.068e-3
1.534,   3.108e-3
1.535,   3.150e-3
1.536,   3.193e-3
1.537,   3.238e-3
1.538,   3.282e-3
1.539,   3.325e-3
1.540,   3.368e-3
1.541,   3.408e-3
1.542,   3.448e-3
1.543,   3.490e-3
1.544,   3.533e-3
1.545,   3.574e-3
1.546,   3.613e-3
1.547,   3.655e-3
1.548,   3.694e-3
1.549,   3.735e-3
1.550,   3.775e-3
1.551,   3.814e-3
1.552,   3.853e-3
1.553,   3.895e-3
1.554,   3.936e-3
1.555,   3.971e-3
1.556,   4.005e-3
1.557,   4.044e-3
1.558,   4.082e-3
1.559,   4.121e-3
1.560,   4.159e-3
1.561,   4.199e-3
1.562,   4.238e-3
1.563,   4.271e-3
1.564,   4.308e-3
1.565,   4.348e-3
1.566,   4.380e-3
1.567,   4.416e-3
1.568,   4.455e-3
1.569,   4.498e-3
1.570,   4.530e-3
1.571,   4.563e-3
1.572,   4.624e-3
1.573,   4.765e-3
1.574,   4.821e-3
1.575,   4.854e-3
1.576,   4.878e-3
1.577,   4.906e-3
1.578,   4.934e-3
1.579,   4.967e-3
1.580,   5.000e-3
1.581,   5.029e-3
1.582,   5.059e-3
1.583,   5.093e-3
1.584,   5.121e-3
1.585,   5.156e-3
1.586,   5.191e-3
1.587,   5.227e-3
1.588,   5.266e-3
1.589,   5.295e-3
1.590,   5.321e-3
1.591,   5.350e-3
1.592,   5.383e-3
1.593,   5.408e-3
1.594,   5.433e-3
1.595,   5.464e-3
1.596,   5.502e-3
1.597,   5.546e-3
1.598,   5.603e-3
1.599,   5.647e-3
1.600,   5.675e-3
1.601,   5.698e-3
1.602,   5.722e-3
1.603,   5.755e-3
1.604,   5.770e-3
1.605,   5.793e-3
1.606,   5.818e-3
1.607,   5.845e-3
1.608,   5.874e-3
1.609,   5.908e-3
1.610,   5.929e-3
1.611,   5.950e-3
1.612,   5.974e-3
1.613,   5.989e-3
1.614,   6.007e-3
1.615,   6.035e-3
1.616,   6.054e-3
1.617,   6.069e-3
1.618,   6.108e-3
1.619,   6.131e-3
1.620,   6.153e-3
1.621,   6.171e-3
1.622,   6.186e-3
1.623,   6.200e-3
1.624,   6.224e-3
1.625,   6.231e-3
1.626,   6.244e-3
1.627,   6.255e-3
1.628,   6.262e-3
1.629,   6.276e-3
1.630,   6.298e-3
1.631,   6.316e-3
1.632,   6.336e-3
1.633,   6.351e-3
1.634,   6.363e-3
1.635,   6.364e-3
1.636,   6.384e-3
1.637,   6.387e-3
1.638,   6.396e-3
1.639,   6.410e-3
1.640,   6.640e-3
1.641,   6.760e-3
1.642,   6.760e-3
1.643,   6.754e-3
1.644,   6.753e-3
1.645,   6.759e-3
1.646,   6.766e-3
1.647,   6.761e-3
1.648,   6.762e-3
1.649,   6.765e-3
1.650,   6.766e-3
1.651,   6.768e-3
1.652,   6.767e-3
1.653,   6.766e-3
1.654,   6.780e-3
1.655,   6.778e-3
1.656,   6.777e-3
1.657,   6.776e-3
1.658,   6.777e-3
1.659,   6.784e-3
1.660,   6.795e-3
1.661,   6.821e-3
1.662,   6.820e-3
1.663,   6.816e-3
1.664,   6.818e-3
1.665,   6.818e-3
1.666,   6.816e-3
1.667,   6.830e-3
1.668,   6.918e-3
1.669,   6.932e-3
1.670,   6.933e-3
1.671,   6.936e-3
1.672,   6.925e-3
1.673,   7.011e-3
1.674,   7.156e-3
1.675,   7.155e-3
1.676,   7.140e-3
1.677,   7.250e-3
1.678,   7.293e-3
1.679,   7.269e-3
1.680,   7.238e-3
1.681,   7.230e-3
1.682,   7.210e-3
1.683,   7.192e-3
1.684,   7.173e-3
1.685,   7.147e-3
1.686,   7.155e-3
1.687,   7.200e-3
1.688,   7.205e-3
1.689,   7.205e-3
1.690,   7.201e-3
1.691,   7.186e-3
1.692,   7.168e-3
1.693,   7.148e-3
1.694,   7.142e-3
1.695,   7.151e-3
1.696,   7.228e-3
1.697,   7.216e-3
1.698,   7.190e-3
1.699,   7.174e-3
1.700,   7.152e-3
1.701,   7.125e-3
1.702,   7.106e-3
1.703,   7.106e-3
1.704,   7.091e-3
1.705,   7.066e-3
1.706,   7.038e-3
1.707,   7.016e-3
1.708,   7.014e-3
1.709,   7.011e-3
1.710,   6.999e-3
1.711,   6.983e-3
1.712,   7.016e-3
1.713,   7.101e-3
1.714,   7.121e-3
1.715,   7.094e-3
1.716,   7.050e-3
1.717,   7.061e-3