File: Experimental Records, Raw Data, and Supplementary Notes and Figures/batch3/final500/B3_VARIANCE_500_#3_Full(#11)-273mV.txt
Feb. 22, 2023   14:36:14
Linear Sweep Voltammetry
File: d:\current work\al_oer\electrochemical test data\batch 3\500\B3_VARIANCE_500_#3_Full(#11)-273mV.txt
Data Source:  Experiment
Instrument Model:  CHI660E
Header:
Note:

Init E (V) = 1.100

Final E (V) = 1.565

Scan Rate (V/s) = 0.010
Sample Interval (V) = 0.001
Quiet Time (sec) = 2
Sensitivity (A/V) = 0.001
Comp R (ohm) = 4.8

Results:

Channel 1:

Potential/V, Current/A
1.100,   4.647e-5
1.101,   6.071e-5
1.102,   5.971e-5
1.103,   5.784e-5
1.104,   5.655e-5
1.105,   5.523e-5
1.106,   5.405e-5
1.107,   5.332e-5
1.108,   5.235e-5
1.109,   5.142e-5
1.110,   5.089e-5
1.111,   5.002e-5
1.112,   4.954e-5
1.113,   4.902e-5
1.114,   4.849e-5
1.115,   4.818e-5
1.116,   4.750e-5
1.117,   4.719e-5
1.118,   4.703e-5
1.119,   4.646e-5
1.120,   4.643e-5
1.121,   4.626e-5
1.122,   4.569e-5
1.123,   4.558e-5
1.124,   4.522e-5
1.125,   4.503e-5
1.126,   4.498e-5
1.127,   4.467e-5
1.128,   4.449e-5
1.129,   4.437e-5
1.130,   4.409e-5
1.131,   4.425e-5
1.132,   4.386e-5
1.133,   4.390e-5
1.134,   4.387e-5
1.135,   4.350e-5
1.136,   4.358e-5
1.137,   4.345e-5
1.138,   4.326e-5
1.139,   4.338e-5
1.140,   4.320e-5
1.141,   4.299e-5
1.142,   4.312e-5
1.143,   4.291e-5
1.144,   4.298e-5
1.145,   4.293e-5
1.146,   4.284e-5
1.147,   4.295e-5
1.148,   4.269e-5
1.149,   4.271e-5
1.150,   4.282e-5
1.151,   4.250e-5
1.152,   4.273e-5
1.153,   4.275e-5
1.154,   4.242e-5
1.155,   4.269e-5
1.156,   4.246e-5
1.157,   4.244e-5
1.158,   4.267e-5
1.159,   4.248e-5
1.160,   4.255e-5
1.161,   4.252e-5
1.162,   4.239e-5
1.163,   4.260e-5
1.164,   4.237e-5
1.165,   4.245e-5
1.166,   4.251e-5
1.167,   4.236e-5
1.168,   4.251e-5
1.169,   4.244e-5
1.170,   4.236e-5
1.171,   4.257e-5
1.172,   4.255e-5
1.173,   4.240e-5
1.174,   4.256e-5
1.175,   4.246e-5
1.176,   4.250e-5
1.177,   4.255e-5
1.178,   4.248e-5
1.179,   4.265e-5
1.180,   4.243e-5
1.181,   4.252e-5
1.182,   4.267e-5
1.183,   4.244e-5
1.184,   4.276e-5
1.185,   4.278e-5
1.186,   4.254e-5
1.187,   4.274e-5
1.188,   4.260e-5
1.189,   4.267e-5
1.190,   4.282e-5
1.191,   4.265e-5
1.192,   4.280e-5
1.193,   4.278e-5
1.194,   4.274e-5
1.195,   4.292e-5
1.196,   4.279e-5
1.197,   4.294e-5
1.198,   4.332e-5
1.199,   4.285e-5
1.200,   4.304e-5
1.201,   4.367e-5
1.202,   4.274e-5
1.203,   4.285e-5
1.204,   4.293e-5
1.205,   4.301e-5
1.206,   4.324e-5
1.207,   4.302e-5
1.208,   4.315e-5
1.209,   4.319e-5
1.210,   4.333e-5
1.211,   4.341e-5
1.212,   4.319e-5
1.213,   4.331e-5
1.214,   4.348e-5
1.215,   4.452e-5
1.216,   4.390e-5
1.217,   4.306e-5
1.218,   4.301e-5
1.219,   4.344e-5
1.220,   4.340e-5
1.221,   4.341e-5
1.222,   4.369e-5
1.223,   4.363e-5
1.224,   4.375e-5
1.225,   4.375e-5
1.226,   4.368e-5
1.227,   4.396e-5
1.228,   4.382e-5
1.229,   4.388e-5
1.230,   4.406e-5
1.231,   4.383e-5
1.232,   4.404e-5
1.233,   4.410e-5
1.234,   4.390e-5
1.235,   4.428e-5
1.236,   4.416e-5
1.237,   4.413e-5
1.238,   4.437e-5
1.239,   4.411e-5
1.240,   4.444e-5
1.241,   4.441e-5
1.242,   4.438e-5
1.243,   4.452e-5
1.244,   4.441e-5
1.245,   4.449e-5
1.246,   4.468e-5
1.247,   4.453e-5
1.248,   4.475e-5
1.249,   4.477e-5
1.250,   4.463e-5
1.251,   4.488e-5
1.252,   4.476e-5
1.253,   4.481e-5
1.254,   4.504e-5
1.255,   4.495e-5
1.256,   4.509e-5
1.257,   4.517e-5
1.258,   4.508e-5
1.259,   4.527e-5
1.260,   4.512e-5
1.261,   4.541e-5
1.262,   4.549e-5
1.263,   4.522e-5
1.264,   4.547e-5
1.265,   4.548e-5
1.266,   4.539e-5
1.267,   4.565e-5
1.268,   4.568e-5
1.269,   4.565e-5
1.270,   4.584e-5
1.271,   4.573e-5
1.272,   4.587e-5
1.273,   4.601e-5
1.274,   4.609e-5
1.275,   4.623e-5
1.276,   4.603e-5
1.277,   4.615e-5
1.278,   4.640e-5
1.279,   4.618e-5
1.280,   4.649e-5
1.281,   4.656e-5
1.282,   4.642e-5
1.283,   4.667e-5
1.284,   4.656e-5
1.285,   4.671e-5
1.286,   4.695e-5
1.287,   4.701e-5
1.288,   4.703e-5
1.289,   4.701e-5
1.290,   4.706e-5
1.291,   4.725e-5
1.292,   4.712e-5
1.293,   4.729e-5
1.294,   4.757e-5
1.295,   4.732e-5
1.296,   4.759e-5
1.297,   4.765e-5
1.298,   4.761e-5
1.299,   4.796e-5
1.300,   4.791e-5
1.301,   4.797e-5
1.302,   4.817e-5
1.303,   4.804e-5
1.304,   4.834e-5
1.305,   4.836e-5
1.306,   4.843e-5
1.307,   4.866e-5
1.308,   4.841e-5
1.309,   4.871e-5
1.310,   4.896e-5
1.311,   4.886e-5
1.312,   4.908e-5
1.313,   4.912e-5
1.314,   4.911e-5
1.315,   4.948e-5
1.316,   4.936e-5
1.317,   4.944e-5
1.318,   4.975e-5
1.319,   4.964e-5
1.320,   4.990e-5
1.321,   4.999e-5
1.322,   4.996e-5
1.323,   5.021e-5
1.324,   5.018e-5
1.325,   5.064e-5
1.326,   5.086e-5
1.327,   5.048e-5
1.328,   5.082e-5
1.329,   5.093e-5
1.330,   5.087e-5
1.331,   5.118e-5
1.332,   5.126e-5
1.333,   5.137e-5
1.334,   5.164e-5
1.335,   5.153e-5
1.336,   5.178e-5
1.337,   5.201e-5
1.338,   5.217e-5
1.339,   5.238e-5
1.340,   5.224e-5
1.341,   5.247e-5
1.342,   5.290e-5
1.343,   5.272e-5
1.344,   5.297e-5
1.345,   5.319e-5
1.346,   5.328e-5
1.347,   5.363e-5
1.348,   5.358e-5
1.349,   5.375e-5
1.350,   5.411e-5
1.351,   5.417e-5
1.352,   5.440e-5
1.353,   5.453e-5
1.354,   5.469e-5
1.355,   5.497e-5
1.356,   5.506e-5
1.357,   5.528e-5
1.358,   5.569e-5
1.359,   5.564e-5
1.360,   5.582e-5
1.361,   5.611e-5
1.362,   5.621e-5
1.363,   5.663e-5
1.364,   5.688e-5
1.365,   5.692e-5
1.366,   5.727e-5
1.367,   5.730e-5
1.368,   5.764e-5
1.369,   5.790e-5
1.370,   5.823e-5
1.371,   5.855e-5
1.372,   5.864e-5
1.373,   5.893e-5
1.374,   5.932e-5
1.375,   5.941e-5
1.376,   5.999e-5
1.377,   6.035e-5
1.378,   6.038e-5
1.379,   6.087e-5
1.380,   6.124e-5
1.381,   6.140e-5
1.382,   6.195e-5
1.383,   6.216e-5
1.384,   6.259e-5
1.385,   6.304e-5
1.386,   6.333e-5
1.387,   6.399e-5
1.388,   6.415e-5
1.389,   6.487e-5
1.390,   6.544e-5
1.391,   6.557e-5
1.392,   6.632e-5
1.393,   6.692e-5
1.394,   6.726e-5
1.395,   6.806e-5
1.396,   6.851e-5
1.397,   6.914e-5
1.398,   7.004e-5
1.399,   7.050e-5
1.400,   7.137e-5
1.401,   7.201e-5
1.402,   7.288e-5
1.403,   7.385e-5
1.404,   7.444e-5
1.405,   7.558e-5
1.406,   7.665e-5
1.407,   7.738e-5
1.408,   7.923e-5
1.409,   7.986e-5
1.410,   8.077e-5
1.411,   8.222e-5
1.412,   8.335e-5
1.413,   8.475e-5
1.414,   8.636e-5
1.415,   8.785e-5
1.416,   8.945e-5
1.417,   9.113e-5
1.418,   9.269e-5
1.419,   9.480e-5
1.420,   9.653e-5
1.421,   9.876e-5
1.422,   1.009e-4
1.423,   1.029e-4
1.424,   1.056e-4
1.425,   1.080e-4
1.426,   1.106e-4
1.427,   1.136e-4
1.428,   1.165e-4
1.429,   1.195e-4
1.430,   1.235e-4
1.431,   1.266e-4
1.432,   1.299e-4
1.433,   1.337e-4
1.434,   1.375e-4
1.435,   1.421e-4
1.436,   1.462e-4
1.437,   1.511e-4
1.438,   1.561e-4
1.439,   1.611e-4
1.440,   1.667e-4
1.441,   1.725e-4
1.442,   1.781e-4
1.443,   1.847e-4
1.444,   1.910e-4
1.445,   1.978e-4
1.446,   2.051e-4
1.447,   2.126e-4
1.448,   2.208e-4
1.449,   2.287e-4
1.450,   2.372e-4
1.451,   2.465e-4
1.452,   2.557e-4
1.453,   2.657e-4
1.454,   2.761e-4
1.455,   2.864e-4
1.456,   2.978e-4
1.457,   3.096e-4
1.458,   3.217e-4
1.459,   3.347e-4
1.460,   3.479e-4
1.461,   3.617e-4
1.462,   3.762e-4
1.463,   3.913e-4
1.464,   4.074e-4
1.465,   4.238e-4
1.466,   4.413e-4
1.467,   4.594e-4
1.468,   4.780e-4
1.469,   4.975e-4
1.470,   5.179e-4
1.471,   5.386e-4
1.472,   5.609e-4
1.473,   5.836e-4
1.474,   6.071e-4
1.475,   6.316e-4
1.476,   6.568e-4
1.477,   6.832e-4
1.478,   7.108e-4
1.479,   7.390e-4
1.480,   7.688e-4
1.481,   7.992e-4
1.482,   8.308e-4
1.483,   8.644e-4
1.484,   8.986e-4
1.485,   9.350e-4
1.486,   9.723e-4
1.487,   1.011e-3
1.488,   1.052e-3
1.489,   1.094e-3
1.490,   1.137e-3
1.491,   1.182e-3
1.492,   1.229e-3
1.493,   1.277e-3
1.494,   1.327e-3
1.495,   1.379e-3
1.496,   1.434e-3
1.497,   1.489e-3
1.498,   1.546e-3
1.499,   1.607e-3
1.500,   1.668e-3
1.501,   1.732e-3
1.502,   1.798e-3
1.503,   1.866e-3
1.504,   1.937e-3
1.505,   2.009e-3
1.506,   2.084e-3
1.507,   2.163e-3
1.508,   2.242e-3
1.509,   2.325e-3
1.510,   2.411e-3
1.511,   2.497e-3
1.512,   2.587e-3
1.513,   2.682e-3
1.514,   2.778e-3
1.515,   2.876e-3
1.516,   2.976e-3
1.517,   3.081e-3
1.518,   3.193e-3
1.519,   3.308e-3
1.520,   3.433e-3
1.521,   3.559e-3
1.522,   3.675e-3
1.523,   3.798e-3
1.524,   3.928e-3
1.525,   4.064e-3
1.526,   4.195e-3
1.527,   4.326e-3
1.528,   4.471e-3
1.529,   4.623e-3
1.530,   4.780e-3
1.531,   4.947e-3
1.532,   5.109e-3
1.533,   5.265e-3
1.534,   5.430e-3
1.535,   5.589e-3
1.536,   5.754e-3
1.537,   5.931e-3
1.538,   6.161e-3
1.539,   6.364e-3
1.540,   6.532e-3
1.541,   6.726e-3
1.542,   6.897e-3
1.543,   7.105e-3
1.544,   7.310e-3
1.545,   7.496e-3
1.546,   7.672e-3
1.547,   7.871e-3
1.548,   8.193e-3
1.549,   8.497e-3
1.550,   8.812e-3
1.551,   9.096e-3
1.552,   9.302e-3
1.553,   9.498e-3
1.554,   9.712e-3
1.555,   9.999e-3
1.556,   1.006e-2
1.557,   1.006e-2
1.558,   1.006e-2
1.559,   1.006e-2
1.560,   1.006e-2
1.561,   1.006e-2
1.562,   1.006e-2
1.563,   1.006e-2
1.564,   1.006e-2
1.565,   1.006e-2