File: Experimental Records, Raw Data, and Supplementary Notes and Figures/batch3/final500/B3_VARIANCE_500_#1_High_Quality(#22)-174mV.txt
Feb. 24, 2023   14:22:45
Linear Sweep Voltammetry
File: d:\current work\al_oer\electrochemical test data\batch 3\500\B3_VARIANCE_500_#1_High_Quality(#22)-174mV.txt
Data Source:  Experiment
Instrument Model:  CHI660E
Header:
Note:

Init E (V) = 1.100

Final E (V) = 1.466

Scan Rate (V/s) = 0.010
Sample Interval (V) = 0.001
Quiet Time (sec) = 2
Sensitivity (A/V) = 0.001
Comp R (ohm) = 4.8

Results:

Channel 1:

Potential/V, Current/A
1.100,   1.007e-2
1.101,   1.007e-2
1.102,   1.007e-2
1.103,   1.006e-2
1.104,   6.655e-3
1.105,   3.574e-3
1.106,   2.430e-3
1.107,   1.836e-3
1.108,   1.470e-3
1.109,   1.228e-3
1.110,   1.055e-3
1.111,   9.279e-4
1.112,   8.349e-4
1.113,   7.618e-4
1.114,   7.052e-4
1.115,   6.606e-4
1.116,   6.227e-4
1.117,   5.933e-4
1.118,   5.692e-4
1.119,   5.473e-4
1.120,   5.292e-4
1.121,   5.140e-4
1.122,   5.006e-4
1.123,   4.899e-4
1.124,   4.781e-4
1.125,   4.694e-4
1.126,   4.616e-4
1.127,   4.544e-4
1.128,   4.492e-4
1.129,   4.426e-4
1.130,   4.373e-4
1.131,   4.337e-4
1.132,   4.275e-4
1.133,   4.243e-4
1.134,   4.210e-4
1.135,   4.169e-4
1.136,   4.147e-4
1.137,   4.114e-4
1.138,   4.092e-4
1.139,   4.078e-4
1.140,   4.048e-4
1.141,   4.032e-4
1.142,   4.014e-4
1.143,   3.990e-4
1.144,   3.979e-4
1.145,   3.959e-4
1.146,   3.955e-4
1.147,   3.948e-4
1.148,   3.921e-4
1.149,   3.923e-4
1.150,   3.906e-4
1.151,   3.890e-4
1.152,   3.892e-4
1.153,   3.883e-4
1.154,   3.874e-4
1.155,   3.874e-4
1.156,   3.856e-4
1.157,   3.862e-4
1.158,   3.853e-4
1.159,   3.847e-4
1.160,   3.850e-4
1.161,   3.839e-4
1.162,   3.833e-4
1.163,   3.837e-4
1.164,   3.828e-4
1.165,   3.836e-4
1.166,   3.835e-4
1.167,   3.823e-4
1.168,   3.833e-4
1.169,   3.820e-4
1.170,   3.821e-4
1.171,   3.830e-4
1.172,   3.828e-4
1.173,   3.830e-4
1.174,   3.828e-4
1.175,   3.821e-4
1.176,   3.828e-4
1.177,   3.822e-4
1.178,   3.829e-4
1.179,   3.830e-4
1.180,   3.819e-4
1.181,   3.830e-4
1.182,   3.835e-4
1.183,   3.828e-4
1.184,   3.841e-4
1.185,   3.838e-4
1.186,   3.839e-4
1.187,   3.845e-4
1.188,   3.839e-4
1.189,   3.844e-4
1.190,   3.852e-4
1.191,   3.850e-4
1.192,   3.858e-4
1.193,   3.850e-4
1.194,   3.857e-4
1.195,   3.869e-4
1.196,   3.859e-4
1.197,   3.868e-4
1.198,   3.877e-4
1.199,   3.871e-4
1.200,   3.879e-4
1.201,   3.874e-4
1.202,   3.876e-4
1.203,   3.888e-4
1.204,   3.882e-4
1.205,   3.889e-4
1.206,   3.895e-4
1.207,   3.893e-4
1.208,   3.903e-4
1.209,   3.900e-4
1.210,   3.908e-4
1.211,   3.925e-4
1.212,   3.912e-4
1.213,   3.920e-4
1.214,   3.922e-4
1.215,   3.921e-4
1.216,   3.936e-4
1.217,   3.936e-4
1.218,   3.935e-4
1.219,   3.948e-4
1.220,   3.937e-4
1.221,   3.953e-4
1.222,   3.960e-4
1.223,   3.970e-4
1.224,   3.969e-4
1.225,   3.965e-4
1.226,   3.973e-4
1.227,   3.980e-4
1.228,   3.972e-4
1.229,   3.989e-4
1.230,   3.990e-4
1.231,   3.990e-4
1.232,   3.998e-4
1.233,   3.992e-4
1.234,   3.999e-4
1.235,   4.016e-4
1.236,   4.012e-4
1.237,   4.021e-4
1.238,   4.027e-4
1.239,   4.021e-4
1.240,   4.033e-4
1.241,   4.028e-4
1.242,   4.038e-4
1.243,   4.051e-4
1.244,   4.038e-4
1.245,   4.052e-4
1.246,   4.062e-4
1.247,   4.058e-4
1.248,   4.071e-4
1.249,   4.072e-4
1.250,   4.073e-4
1.251,   4.087e-4
1.252,   4.077e-4
1.253,   4.093e-4
1.254,   4.099e-4
1.255,   4.097e-4
1.256,   4.109e-4
1.257,   4.105e-4
1.258,   4.111e-4
1.259,   4.123e-4
1.260,   4.114e-4
1.261,   4.132e-4
1.262,   4.137e-4
1.263,   4.132e-4
1.264,   4.148e-4
1.265,   4.140e-4
1.266,   4.149e-4
1.267,   4.161e-4
1.268,   4.154e-4
1.269,   4.171e-4
1.270,   4.177e-4
1.271,   4.175e-4
1.272,   4.188e-4
1.273,   4.182e-4
1.274,   4.196e-4
1.275,   4.211e-4
1.276,   4.201e-4
1.277,   4.210e-4
1.278,   4.216e-4
1.279,   4.219e-4
1.280,   4.236e-4
1.281,   4.232e-4
1.282,   4.237e-4
1.283,   4.248e-4
1.284,   4.242e-4
1.285,   4.255e-4
1.286,   4.259e-4
1.287,   4.267e-4
1.288,   4.276e-4
1.289,   4.273e-4
1.290,   4.281e-4
1.291,   4.296e-4
1.292,   4.288e-4
1.293,   4.305e-4
1.294,   4.315e-4
1.295,   4.307e-4
1.296,   4.321e-4
1.297,   4.319e-4
1.298,   4.330e-4
1.299,   4.345e-4
1.300,   4.345e-4
1.301,   4.354e-4
1.302,   4.360e-4
1.303,   4.363e-4
1.304,   4.379e-4
1.305,   4.372e-4
1.306,   4.385e-4
1.307,   4.402e-4
1.308,   4.394e-4
1.309,   4.405e-4
1.310,   4.417e-4
1.311,   4.421e-4
1.312,   4.437e-4
1.313,   4.440e-4
1.314,   4.449e-4
1.315,   4.460e-4
1.316,   4.459e-4
1.317,   4.471e-4
1.318,   4.482e-4
1.319,   4.490e-4
1.320,   4.505e-4
1.321,   4.508e-4
1.322,   4.519e-4
1.323,   4.540e-4
1.324,   4.538e-4
1.325,   4.565e-4
1.326,   4.583e-4
1.327,   4.585e-4
1.328,   4.603e-4
1.329,   4.605e-4
1.330,   4.622e-4
1.331,   4.647e-4
1.332,   4.642e-4
1.333,   4.672e-4
1.334,   4.689e-4
1.335,   4.700e-4
1.336,   4.730e-4
1.337,   4.745e-4
1.338,   4.774e-4
1.339,   4.798e-4
1.340,   4.806e-4
1.341,   4.841e-4
1.342,   4.863e-4
1.343,   4.881e-4
1.344,   4.917e-4
1.345,   4.950e-4
1.346,   4.976e-4
1.347,   5.018e-4
1.348,   5.043e-4
1.349,   5.086e-4
1.350,   5.128e-4
1.351,   5.167e-4
1.352,   5.223e-4
1.353,   5.259e-4
1.354,   5.312e-4
1.355,   5.368e-4
1.356,   5.414e-4
1.357,   5.481e-4
1.358,   5.547e-4
1.359,   5.613e-4
1.360,   5.683e-4
1.361,   5.750e-4
1.362,   5.831e-4
1.363,   5.922e-4
1.364,   6.011e-4
1.365,   6.105e-4
1.366,   6.203e-4
1.367,   6.310e-4
1.368,   6.427e-4
1.369,   6.531e-4
1.370,   6.665e-4
1.371,   6.810e-4
1.372,   6.936e-4
1.373,   7.087e-4
1.374,   7.251e-4
1.375,   7.409e-4
1.376,   7.595e-4
1.377,   7.779e-4
1.378,   7.970e-4
1.379,   8.183e-4
1.380,   8.387e-4
1.381,   8.626e-4
1.382,   8.866e-4
1.383,   9.121e-4
1.384,   9.396e-4
1.385,   9.668e-4
1.386,   9.972e-4
1.387,   1.029e-3
1.388,   1.060e-3
1.389,   1.097e-3
1.390,   1.134e-3
1.391,   1.171e-3
1.392,   1.211e-3
1.393,   1.253e-3
1.394,   1.297e-3
1.395,   1.343e-3
1.396,   1.390e-3
1.397,   1.442e-3
1.398,   1.494e-3
1.399,   1.548e-3
1.400,   1.607e-3
1.401,   1.666e-3
1.402,   1.729e-3
1.403,   1.796e-3
1.404,   1.865e-3
1.405,   1.939e-3
1.406,   2.015e-3
1.407,   2.094e-3
1.408,   2.181e-3
1.409,   2.267e-3
1.410,   2.357e-3
1.411,   2.450e-3
1.412,   2.550e-3
1.413,   2.651e-3
1.414,   2.766e-3
1.415,   2.874e-3
1.416,   2.994e-3
1.417,   3.119e-3
1.418,   3.245e-3
1.419,   3.381e-3
1.420,   3.521e-3
1.421,   3.662e-3
1.422,   3.822e-3
1.423,   3.977e-3
1.424,   4.135e-3
1.425,   4.311e-3
1.426,   4.501e-3
1.427,   4.686e-3
1.428,   4.879e-3
1.429,   5.101e-3
1.430,   5.290e-3
1.431,   5.506e-3
1.432,   5.722e-3
1.433,   5.968e-3
1.434,   6.200e-3
1.435,   6.408e-3
1.436,   6.650e-3
1.437,   6.913e-3
1.438,   7.150e-3
1.439,   7.435e-3
1.440,   7.747e-3
1.441,   7.996e-3
1.442,   8.293e-3
1.443,   8.634e-3
1.444,   9.013e-3
1.445,   9.322e-3
1.446,   9.627e-3
1.447,   9.941e-3
1.448,   1.007e-2
1.449,   1.007e-2
1.450,   1.007e-2
1.451,   1.007e-2
1.452,   1.007e-2
1.453,   1.007e-2
1.454,   1.007e-2
1.455,   1.007e-2
1.456,   1.007e-2
1.457,   1.007e-2
1.458,   1.007e-2
1.459,   1.007e-2
1.460,   1.007e-2
1.461,   1.007e-2
1.462,   1.007e-2
1.463,   1.007e-2
1.464,   1.007e-2
1.465,   1.007e-2
1.466,   1.007e-2