File: Experimental Records, Raw Data, and Supplementary Notes and Figures/batch3/final500/B3_VARIANCE_500_#4_Full(#12)-236mV.txt
Feb. 24, 2023   15:25:43
Linear Sweep Voltammetry
File: d:\current work\al_oer\electrochemical test data\batch 3\500\B3_VARIANCE_500_#4_Full(#12)-236mV.txt
Data Source:  Experiment
Instrument Model:  CHI660E
Header:
Note:

Init E (V) = 1.099

Final E (V) = 1.520

Scan Rate (V/s) = 0.010
Sample Interval (V) = 0.001
Quiet Time (sec) = 2
Sensitivity (A/V) = 0.001
Comp R (ohm) = 4.6

Results:

Channel 1:

Potential/V, Current/A
1.099,   1.076e-4
1.100,   1.191e-4
1.101,   1.143e-4
1.102,   1.094e-4
1.103,   1.055e-4
1.104,   1.016e-4
1.105,   9.834e-5
1.106,   9.639e-5
1.107,   9.387e-5
1.108,   9.135e-5
1.109,   8.908e-5
1.110,   8.707e-5
1.111,   8.538e-5
1.112,   8.398e-5
1.113,   8.226e-5
1.114,   8.124e-5
1.115,   8.006e-5
1.116,   7.858e-5
1.117,   7.775e-5
1.118,   7.634e-5
1.119,   7.577e-5
1.120,   7.491e-5
1.121,   7.435e-5
1.122,   7.388e-5
1.123,   7.285e-5
1.124,   7.227e-5
1.125,   7.169e-5
1.126,   7.101e-5
1.127,   7.052e-5
1.128,   6.985e-5
1.129,   6.922e-5
1.130,   6.918e-5
1.131,   6.863e-5
1.132,   6.844e-5
1.133,   6.834e-5
1.134,   6.785e-5
1.135,   6.794e-5
1.136,   6.778e-5
1.137,   6.739e-5
1.138,   6.722e-5
1.139,   6.669e-5
1.140,   6.651e-5
1.141,   6.663e-5
1.142,   6.652e-5
1.143,   6.646e-5
1.144,   6.623e-5
1.145,   6.605e-5
1.146,   6.629e-5
1.147,   6.598e-5
1.148,   6.612e-5
1.149,   6.635e-5
1.150,   6.607e-5
1.151,   6.617e-5
1.152,   6.612e-5
1.153,   6.601e-5
1.154,   6.623e-5
1.155,   6.607e-5
1.156,   6.610e-5
1.157,   6.648e-5
1.158,   6.638e-5
1.159,   6.648e-5
1.160,   6.659e-5
1.161,   6.653e-5
1.162,   6.691e-5
1.163,   6.682e-5
1.164,   6.677e-5
1.165,   6.696e-5
1.166,   6.678e-5
1.167,   6.689e-5
1.168,   6.705e-5
1.169,   6.716e-5
1.170,   6.767e-5
1.171,   6.778e-5
1.172,   6.787e-5
1.173,   6.825e-5
1.174,   6.824e-5
1.175,   6.862e-5
1.176,   6.860e-5
1.177,   6.866e-5
1.178,   6.910e-5
1.179,   6.902e-5
1.180,   6.928e-5
1.181,   6.975e-5
1.182,   6.964e-5
1.183,   7.015e-5
1.184,   7.035e-5
1.185,   7.029e-5
1.186,   7.076e-5
1.187,   7.055e-5
1.188,   7.089e-5
1.189,   7.141e-5
1.190,   7.131e-5
1.191,   7.176e-5
1.192,   7.182e-5
1.193,   7.191e-5
1.194,   7.240e-5
1.195,   7.246e-5
1.196,   7.299e-5
1.197,   7.338e-5
1.198,   7.317e-5
1.199,   7.348e-5
1.200,   7.362e-5
1.201,   7.369e-5
1.202,   7.421e-5
1.203,   7.404e-5
1.204,   7.434e-5
1.205,   7.477e-5
1.206,   7.464e-5
1.207,   7.495e-5
1.208,   7.508e-5
1.209,   7.532e-5
1.210,   7.558e-5
1.211,   7.555e-5
1.212,   7.569e-5
1.213,   7.614e-5
1.214,   7.574e-5
1.215,   7.624e-5
1.216,   7.621e-5
1.217,   7.618e-5
1.218,   7.688e-5
1.219,   7.659e-5
1.220,   7.653e-5
1.221,   7.679e-5
1.222,   7.686e-5
1.223,   7.678e-5
1.224,   7.653e-5
1.225,   7.642e-5
1.226,   7.671e-5
1.227,   7.649e-5
1.228,   7.650e-5
1.229,   7.664e-5
1.230,   7.631e-5
1.231,   7.660e-5
1.232,   7.649e-5
1.233,   7.630e-5
1.234,   7.658e-5
1.235,   7.628e-5
1.236,   7.611e-5
1.237,   7.636e-5
1.238,   7.581e-5
1.239,   7.615e-5
1.240,   7.602e-5
1.241,   7.580e-5
1.242,   7.606e-5
1.243,   7.563e-5
1.244,   7.565e-5
1.245,   7.569e-5
1.246,   7.536e-5
1.247,   7.552e-5
1.248,   7.529e-5
1.249,   7.506e-5
1.250,   7.520e-5
1.251,   7.479e-5
1.252,   7.480e-5
1.253,   7.497e-5
1.254,   7.450e-5
1.255,   7.463e-5
1.256,   7.443e-5
1.257,   7.416e-5
1.258,   7.437e-5
1.259,   7.405e-5
1.260,   7.397e-5
1.261,   7.412e-5
1.262,   7.368e-5
1.263,   7.384e-5
1.264,   7.363e-5
1.265,   7.356e-5
1.266,   7.353e-5
1.267,   7.338e-5
1.268,   7.347e-5
1.269,   7.349e-5
1.270,   7.287e-5
1.271,   7.303e-5
1.272,   7.300e-5
1.273,   7.292e-5
1.274,   7.308e-5
1.275,   7.265e-5
1.276,   7.250e-5
1.277,   7.276e-5
1.278,   7.235e-5
1.279,   7.253e-5
1.280,   7.242e-5
1.281,   7.230e-5
1.282,   7.253e-5
1.283,   7.210e-5
1.284,   7.196e-5
1.285,   7.226e-5
1.286,   7.208e-5
1.287,   7.209e-5
1.288,   7.201e-5
1.289,   7.175e-5
1.290,   7.215e-5
1.291,   7.173e-5
1.292,   7.184e-5
1.293,   7.201e-5
1.294,   7.156e-5
1.295,   7.174e-5
1.296,   7.177e-5
1.297,   7.156e-5
1.298,   7.186e-5
1.299,   7.176e-5
1.300,   7.159e-5
1.301,   7.184e-5
1.302,   7.150e-5
1.303,   7.190e-5
1.304,   7.178e-5
1.305,   7.163e-5
1.306,   7.191e-5
1.307,   7.168e-5
1.308,   7.175e-5
1.309,   7.197e-5
1.310,   7.171e-5
1.311,   7.205e-5
1.312,   7.214e-5
1.313,   7.177e-5
1.314,   7.215e-5
1.315,   7.187e-5
1.316,   7.212e-5
1.317,   7.236e-5
1.318,   7.210e-5
1.319,   7.246e-5
1.320,   7.243e-5
1.321,   7.226e-5
1.322,   7.274e-5
1.323,   7.238e-5
1.324,   7.278e-5
1.325,   7.308e-5
1.326,   7.282e-5
1.327,   7.299e-5
1.328,   7.302e-5
1.329,   7.306e-5
1.330,   7.340e-5
1.331,   7.327e-5
1.332,   7.349e-5
1.333,   7.358e-5
1.334,   7.350e-5
1.335,   7.384e-5
1.336,   7.379e-5
1.337,   7.397e-5
1.338,   7.440e-5
1.339,   7.398e-5
1.340,   7.442e-5
1.341,   7.464e-5
1.342,   7.450e-5
1.343,   7.487e-5
1.344,   7.523e-5
1.345,   7.498e-5
1.346,   7.565e-5
1.347,   7.549e-5
1.348,   7.575e-5
1.349,   7.623e-5
1.350,   7.614e-5
1.351,   7.639e-5
1.352,   7.664e-5
1.353,   7.668e-5
1.354,   7.724e-5
1.355,   7.712e-5
1.356,   7.749e-5
1.357,   7.802e-5
1.358,   7.778e-5
1.359,   7.838e-5
1.360,   7.863e-5
1.361,   7.884e-5
1.362,   7.946e-5
1.363,   7.961e-5
1.364,   7.974e-5
1.365,   8.042e-5
1.366,   8.054e-5
1.367,   8.109e-5
1.368,   8.143e-5
1.369,   8.188e-5
1.370,   8.259e-5
1.371,   8.268e-5
1.372,   8.329e-5
1.373,   8.410e-5
1.374,   8.415e-5
1.375,   8.518e-5
1.376,   8.577e-5
1.377,   8.606e-5
1.378,   8.708e-5
1.379,   8.740e-5
1.380,   8.829e-5
1.381,   8.937e-5
1.382,   8.989e-5
1.383,   9.084e-5
1.384,   9.190e-5
1.385,   9.280e-5
1.386,   9.407e-5
1.387,   9.472e-5
1.388,   9.623e-5
1.389,   9.779e-5
1.390,   9.853e-5
1.391,   1.003e-4
1.392,   1.018e-4
1.393,   1.031e-4
1.394,   1.051e-4
1.395,   1.067e-4
1.396,   1.086e-4
1.397,   1.108e-4
1.398,   1.128e-4
1.399,   1.153e-4
1.400,   1.176e-4
1.401,   1.202e-4
1.402,   1.232e-4
1.403,   1.257e-4
1.404,   1.290e-4
1.405,   1.323e-4
1.406,   1.353e-4
1.407,   1.395e-4
1.408,   1.433e-4
1.409,   1.473e-4
1.410,   1.523e-4
1.411,   1.565e-4
1.412,   1.618e-4
1.413,   1.673e-4
1.414,   1.727e-4
1.415,   1.789e-4
1.416,   1.852e-4
1.417,   1.918e-4
1.418,   1.994e-4
1.419,   2.068e-4
1.420,   2.150e-4
1.421,   2.237e-4
1.422,   2.325e-4
1.423,   2.425e-4
1.424,   2.527e-4
1.425,   2.636e-4
1.426,   2.755e-4
1.427,   2.881e-4
1.428,   3.007e-4
1.429,   3.146e-4
1.430,   3.286e-4
1.431,   3.444e-4
1.432,   3.607e-4
1.433,   3.777e-4
1.434,   3.961e-4
1.435,   4.147e-4
1.436,   4.351e-4
1.437,   4.567e-4
1.438,   4.788e-4
1.439,   5.030e-4
1.440,   5.280e-4
1.441,   5.542e-4
1.442,   5.823e-4
1.443,   6.110e-4
1.444,   6.420e-4
1.445,   6.755e-4
1.446,   7.094e-4
1.447,   7.456e-4
1.448,   7.831e-4
1.449,   8.223e-4
1.450,   8.643e-4
1.451,   9.073e-4
1.452,   9.535e-4
1.453,   1.002e-3
1.454,   1.053e-3
1.455,   1.105e-3
1.456,   1.161e-3
1.457,   1.218e-3
1.458,   1.279e-3
1.459,   1.341e-3
1.460,   1.409e-3
1.461,   1.477e-3
1.462,   1.548e-3
1.463,   1.622e-3
1.464,   1.701e-3
1.465,   1.786e-3
1.466,   1.871e-3
1.467,   1.956e-3
1.468,   2.045e-3
1.469,   2.138e-3
1.470,   2.239e-3
1.471,   2.339e-3
1.472,   2.446e-3
1.473,   2.554e-3
1.474,   2.669e-3
1.475,   2.780e-3
1.476,   2.902e-3
1.477,   3.028e-3
1.478,   3.176e-3
1.479,   3.301e-3
1.480,   3.429e-3
1.481,   3.567e-3
1.482,   3.720e-3
1.483,   3.868e-3
1.484,   4.017e-3
1.485,   4.166e-3
1.486,   4.350e-3
1.487,   4.523e-3
1.488,   4.675e-3
1.489,   4.845e-3
1.490,   5.019e-3
1.491,   5.232e-3
1.492,   5.391e-3
1.493,   5.578e-3
1.494,   5.771e-3
1.495,   5.996e-3
1.496,   6.201e-3
1.497,   6.412e-3
1.498,   6.610e-3
1.499,   6.807e-3
1.500,   7.034e-3
1.501,   7.252e-3
1.502,   7.534e-3
1.503,   7.794e-3
1.504,   7.972e-3
1.505,   8.186e-3
1.506,   8.375e-3
1.507,   8.659e-3
1.508,   9.006e-3
1.509,   9.226e-3
1.510,   9.416e-3
1.511,   9.647e-3
1.512,   9.987e-3
1.513,   1.007e-2
1.514,   1.007e-2
1.515,   1.007e-2
1.516,   1.007e-2
1.517,   1.007e-2
1.518,   1.007e-2
1.519,   1.007e-2
1.520,   1.007e-2