File: Experimental Records, Raw Data, and Supplementary Notes and Figures/batch3/final500/B3_VARIANCE_500_#3_High_Quality(#24)-299mV.txt
Feb. 24, 2023   14:57:59
Linear Sweep Voltammetry
File: d:\current work\al_oer\electrochemical test data\batch 3\500\B3_VARIANCE_500_#3_High_Quality(#24)-299mV.txt
Data Source:  Experiment
Instrument Model:  CHI660E
Header:
Note:

Init E (V) = 1.099

Final E (V) = 1.632

Scan Rate (V/s) = 0.010
Sample Interval (V) = 0.001
Quiet Time (sec) = 2
Sensitivity (A/V) = 0.001
Comp R (ohm) = 4.6

Results:

Channel 1:

Potential/V, Current/A
1.099,   1.712e-4
1.100,   1.626e-4
1.101,   1.539e-4
1.102,   1.457e-4
1.103,   1.379e-4
1.104,   1.312e-4
1.105,   1.251e-4
1.106,   1.197e-4
1.107,   1.145e-4
1.108,   1.099e-4
1.109,   1.059e-4
1.110,   1.022e-4
1.111,   9.871e-5
1.112,   9.526e-5
1.113,   9.233e-5
1.114,   8.952e-5
1.115,   8.692e-5
1.116,   8.463e-5
1.117,   8.231e-5
1.118,   8.022e-5
1.119,   7.832e-5
1.120,   7.660e-5
1.121,   7.482e-5
1.122,   7.331e-5
1.123,   7.164e-5
1.124,   7.023e-5
1.125,   6.893e-5
1.126,   6.758e-5
1.127,   6.638e-5
1.128,   6.518e-5
1.129,   6.421e-5
1.130,   6.312e-5
1.131,   6.203e-5
1.132,   6.100e-5
1.133,   6.017e-5
1.134,   5.926e-5
1.135,   5.839e-5
1.136,   5.752e-5
1.137,   5.673e-5
1.138,   5.600e-5
1.139,   5.525e-5
1.140,   5.463e-5
1.141,   5.409e-5
1.142,   5.354e-5
1.143,   5.303e-5
1.144,   5.241e-5
1.145,   5.184e-5
1.146,   5.133e-5
1.147,   5.089e-5
1.148,   5.047e-5
1.149,   5.001e-5
1.150,   4.953e-5
1.151,   4.900e-5
1.152,   4.866e-5
1.153,   4.840e-5
1.154,   4.806e-5
1.155,   4.768e-5
1.156,   4.733e-5
1.157,   4.702e-5
1.158,   4.668e-5
1.159,   4.644e-5
1.160,   4.627e-5
1.161,   4.604e-5
1.162,   4.590e-5
1.163,   4.562e-5
1.164,   4.533e-5
1.165,   4.510e-5
1.166,   4.491e-5
1.167,   4.477e-5
1.168,   4.451e-5
1.169,   4.430e-5
1.170,   4.417e-5
1.171,   4.395e-5
1.172,   4.378e-5
1.173,   4.368e-5
1.174,   4.355e-5
1.175,   4.351e-5
1.176,   4.339e-5
1.177,   4.318e-5
1.178,   4.314e-5
1.179,   4.301e-5
1.180,   4.296e-5
1.181,   4.281e-5
1.182,   4.272e-5
1.183,   4.272e-5
1.184,   4.260e-5
1.185,   4.243e-5
1.186,   4.235e-5
1.187,   4.218e-5
1.188,   4.211e-5
1.189,   4.208e-5
1.190,   4.201e-5
1.191,   4.213e-5
1.192,   4.207e-5
1.193,   4.202e-5
1.194,   4.188e-5
1.195,   4.183e-5
1.196,   4.194e-5
1.197,   4.192e-5
1.198,   4.184e-5
1.199,   4.185e-5
1.200,   4.181e-5
1.201,   4.181e-5
1.202,   4.188e-5
1.203,   4.188e-5
1.204,   4.182e-5
1.205,   4.178e-5
1.206,   4.176e-5
1.207,   4.173e-5
1.208,   4.175e-5
1.209,   4.179e-5
1.210,   4.179e-5
1.211,   4.180e-5
1.212,   4.175e-5
1.213,   4.178e-5
1.214,   4.173e-5
1.215,   4.177e-5
1.216,   4.174e-5
1.217,   4.181e-5
1.218,   4.187e-5
1.219,   4.186e-5
1.220,   4.195e-5
1.221,   4.199e-5
1.222,   4.195e-5
1.223,   4.201e-5
1.224,   4.203e-5
1.225,   4.209e-5
1.226,   4.214e-5
1.227,   4.221e-5
1.228,   4.226e-5
1.229,   4.228e-5
1.230,   4.231e-5
1.231,   4.241e-5
1.232,   4.246e-5
1.233,   4.244e-5
1.234,   4.255e-5
1.235,   4.254e-5
1.236,   4.261e-5
1.237,   4.277e-5
1.238,   4.274e-5
1.239,   4.282e-5
1.240,   4.283e-5
1.241,   4.292e-5
1.242,   4.299e-5
1.243,   4.297e-5
1.244,   4.305e-5
1.245,   4.315e-5
1.246,   4.320e-5
1.247,   4.327e-5
1.248,   4.325e-5
1.249,   4.326e-5
1.250,   4.335e-5
1.251,   4.338e-5
1.252,   4.348e-5
1.253,   4.365e-5
1.254,   4.373e-5
1.255,   4.386e-5
1.256,   4.385e-5
1.257,   4.397e-5
1.258,   4.410e-5
1.259,   4.406e-5
1.260,   4.417e-5
1.261,   4.426e-5
1.262,   4.432e-5
1.263,   4.441e-5
1.264,   4.443e-5
1.265,   4.452e-5
1.266,   4.463e-5
1.267,   4.466e-5
1.268,   4.474e-5
1.269,   4.488e-5
1.270,   4.489e-5
1.271,   4.501e-5
1.272,   4.497e-5
1.273,   4.512e-5
1.274,   4.524e-5
1.275,   4.531e-5
1.276,   4.539e-5
1.277,   4.545e-5
1.278,   4.548e-5
1.279,   4.563e-5
1.280,   4.562e-5
1.281,   4.571e-5
1.282,   4.581e-5
1.283,   4.593e-5
1.284,   4.605e-5
1.285,   4.616e-5
1.286,   4.627e-5
1.287,   4.639e-5
1.288,   4.634e-5
1.289,   4.646e-5
1.290,   4.659e-5
1.291,   4.656e-5
1.292,   4.667e-5
1.293,   4.677e-5
1.294,   4.683e-5
1.295,   4.692e-5
1.296,   4.704e-5
1.297,   4.713e-5
1.298,   4.726e-5
1.299,   4.732e-5
1.300,   4.745e-5
1.301,   4.763e-5
1.302,   4.767e-5
1.303,   4.786e-5
1.304,   4.784e-5
1.305,   4.795e-5
1.306,   4.803e-5
1.307,   4.810e-5
1.308,   4.826e-5
1.309,   4.826e-5
1.310,   4.836e-5
1.311,   4.853e-5
1.312,   4.866e-5
1.313,   4.878e-5
1.314,   4.885e-5
1.315,   4.888e-5
1.316,   4.900e-5
1.317,   4.915e-5
1.318,   4.916e-5
1.319,   4.935e-5
1.320,   4.943e-5
1.321,   4.954e-5
1.322,   4.959e-5
1.323,   4.966e-5
1.324,   4.979e-5
1.325,   4.997e-5
1.326,   5.002e-5
1.327,   5.015e-5
1.328,   5.016e-5
1.329,   5.023e-5
1.330,   5.045e-5
1.331,   5.052e-5
1.332,   5.064e-5
1.333,   5.079e-5
1.334,   5.089e-5
1.335,   5.102e-5
1.336,   5.104e-5
1.337,   5.118e-5
1.338,   5.130e-5
1.339,   5.135e-5
1.340,   5.151e-5
1.341,   5.170e-5
1.342,   5.181e-5
1.343,   5.196e-5
1.344,   5.206e-5
1.345,   5.220e-5
1.346,   5.228e-5
1.347,   5.234e-5
1.348,   5.242e-5
1.349,   5.265e-5
1.350,   5.264e-5
1.351,   5.290e-5
1.352,   5.292e-5
1.353,   5.306e-5
1.354,   5.328e-5
1.355,   5.341e-5
1.356,   5.350e-5
1.357,   5.366e-5
1.358,   5.377e-5
1.359,   5.387e-5
1.360,   5.402e-5
1.361,   5.424e-5
1.362,   5.444e-5
1.363,   5.461e-5
1.364,   5.475e-5
1.365,   5.493e-5
1.366,   5.504e-5
1.367,   5.528e-5
1.368,   5.544e-5
1.369,   5.568e-5
1.370,   5.592e-5
1.371,   5.606e-5
1.372,   5.633e-5
1.373,   5.660e-5
1.374,   5.668e-5
1.375,   5.699e-5
1.376,   5.722e-5
1.377,   5.734e-5
1.378,   5.762e-5
1.379,   5.771e-5
1.380,   5.794e-5
1.381,   5.824e-5
1.382,   5.843e-5
1.383,   5.871e-5
1.384,   5.895e-5
1.385,   5.918e-5
1.386,   5.963e-5
1.387,   5.983e-5
1.388,   6.019e-5
1.389,   6.058e-5
1.390,   6.085e-5
1.391,   6.128e-5
1.392,   6.156e-5
1.393,   6.192e-5
1.394,   6.231e-5
1.395,   6.267e-5
1.396,   6.319e-5
1.397,   6.364e-5
1.398,   6.400e-5
1.399,   6.450e-5
1.400,   6.501e-5
1.401,   6.559e-5
1.402,   6.617e-5
1.403,   6.671e-5
1.404,   6.735e-5
1.405,   6.796e-5
1.406,   6.867e-5
1.407,   6.948e-5
1.408,   7.021e-5
1.409,   7.100e-5
1.410,   7.196e-5
1.411,   7.274e-5
1.412,   7.373e-5
1.413,   7.480e-5
1.414,   7.587e-5
1.415,   7.702e-5
1.416,   7.812e-5
1.417,   7.940e-5
1.418,   8.079e-5
1.419,   8.216e-5
1.420,   8.362e-5
1.421,   8.517e-5
1.422,   8.683e-5
1.423,   8.854e-5
1.424,   9.039e-5
1.425,   9.228e-5
1.426,   9.436e-5
1.427,   9.664e-5
1.428,   9.886e-5
1.429,   1.014e-4
1.430,   1.038e-4
1.431,   1.065e-4
1.432,   1.094e-4
1.433,   1.122e-4
1.434,   1.154e-4
1.435,   1.187e-4
1.436,   1.221e-4
1.437,   1.257e-4
1.438,   1.295e-4
1.439,   1.335e-4
1.440,   1.377e-4
1.441,   1.420e-4
1.442,   1.466e-4
1.443,   1.512e-4
1.444,   1.564e-4
1.445,   1.616e-4
1.446,   1.669e-4
1.447,   1.725e-4
1.448,   1.784e-4
1.449,   1.844e-4
1.450,   1.909e-4
1.451,   1.975e-4
1.452,   2.045e-4
1.453,   2.117e-4
1.454,   2.193e-4
1.455,   2.271e-4
1.456,   2.352e-4
1.457,   2.436e-4
1.458,   2.523e-4
1.459,   2.612e-4
1.460,   2.705e-4
1.461,   2.802e-4
1.462,   2.901e-4
1.463,   3.004e-4
1.464,   3.110e-4
1.465,   3.222e-4
1.466,   3.337e-4
1.467,   3.454e-4
1.468,   3.576e-4
1.469,   3.701e-4
1.470,   3.828e-4
1.471,   3.962e-4
1.472,   4.098e-4
1.473,   4.239e-4
1.474,   4.386e-4
1.475,   4.535e-4
1.476,   4.686e-4
1.477,   4.843e-4
1.478,   5.002e-4
1.479,   5.167e-4
1.480,   5.337e-4
1.481,   5.511e-4
1.482,   5.690e-4
1.483,   5.871e-4
1.484,   6.058e-4
1.485,   6.249e-4
1.486,   6.445e-4
1.487,   6.647e-4
1.488,   6.849e-4
1.489,   7.059e-4
1.490,   7.275e-4
1.491,   7.492e-4
1.492,   7.714e-4
1.493,   7.939e-4
1.494,   8.170e-4
1.495,   8.406e-4
1.496,   8.645e-4
1.497,   8.896e-4
1.498,   9.144e-4
1.499,   9.398e-4
1.500,   9.659e-4
1.501,   9.925e-4
1.502,   1.019e-3
1.503,   1.046e-3
1.504,   1.074e-3
1.505,   1.102e-3
1.506,   1.131e-3
1.507,   1.161e-3
1.508,   1.190e-3
1.509,   1.220e-3
1.510,   1.250e-3
1.511,   1.282e-3
1.512,   1.313e-3
1.513,   1.345e-3
1.514,   1.377e-3
1.515,   1.410e-3
1.516,   1.444e-3
1.517,   1.479e-3
1.518,   1.513e-3
1.519,   1.550e-3
1.520,   1.585e-3
1.521,   1.621e-3
1.522,   1.658e-3
1.523,   1.694e-3
1.524,   1.732e-3
1.525,   1.769e-3
1.526,   1.808e-3
1.527,   1.848e-3
1.528,   1.887e-3
1.529,   1.928e-3
1.530,   1.968e-3
1.531,   2.010e-3
1.532,   2.052e-3
1.533,   2.093e-3
1.534,   2.135e-3
1.535,   2.179e-3
1.536,   2.224e-3
1.537,   2.269e-3
1.538,   2.313e-3
1.539,   2.358e-3
1.540,   2.409e-3
1.541,   2.462e-3
1.542,   2.509e-3
1.543,   2.555e-3
1.544,   2.602e-3
1.545,   2.655e-3
1.546,   2.706e-3
1.547,   2.754e-3
1.548,   2.809e-3
1.549,   2.863e-3
1.550,   2.916e-3
1.551,   2.970e-3
1.552,   3.025e-3
1.553,   3.079e-3
1.554,   3.134e-3
1.555,   3.190e-3
1.556,   3.250e-3
1.557,   3.306e-3
1.558,   3.364e-3
1.559,   3.424e-3
1.560,   3.484e-3
1.561,   3.563e-3
1.562,   3.655e-3
1.563,   3.719e-3
1.564,   3.781e-3
1.565,   3.842e-3
1.566,   3.912e-3
1.567,   3.987e-3
1.568,   4.047e-3
1.569,   4.112e-3
1.570,   4.182e-3
1.571,   4.246e-3
1.572,   4.312e-3
1.573,   4.396e-3
1.574,   4.472e-3
1.575,   4.541e-3
1.576,   4.612e-3
1.577,   4.696e-3
1.578,   4.773e-3
1.579,   4.845e-3
1.580,   4.921e-3
1.581,   5.014e-3
1.582,   5.125e-3
1.583,   5.247e-3
1.584,   5.330e-3
1.585,   5.403e-3
1.586,   5.478e-3
1.587,   5.575e-3
1.588,   5.667e-3
1.589,   5.755e-3
1.590,   5.841e-3
1.591,   5.917e-3
1.592,   6.010e-3
1.593,   6.119e-3
1.594,   6.208e-3
1.595,   6.346e-3
1.596,   6.437e-3
1.597,   6.516e-3
1.598,   6.595e-3
1.599,   6.691e-3
1.600,   6.789e-3
1.601,   6.890e-3
1.602,   7.020e-3
1.603,   7.140e-3
1.604,   7.237e-3
1.605,   7.334e-3
1.606,   7.410e-3
1.607,   7.491e-3
1.608,   7.602e-3
1.609,   7.691e-3
1.610,   7.780e-3
1.611,   7.883e-3
1.612,   7.984e-3
1.613,   8.074e-3
1.614,   8.183e-3
1.615,   8.393e-3
1.616,   8.523e-3
1.617,   8.600e-3
1.618,   8.709e-3
1.619,   8.825e-3
1.620,   8.935e-3
1.621,   9.030e-3
1.622,   9.154e-3
1.623,   9.373e-3
1.624,   9.482e-3
1.625,   9.560e-3
1.626,   9.715e-3
1.627,   9.904e-3
1.628,   1.003e-2
1.629,   1.007e-2
1.630,   1.007e-2
1.631,   1.007e-2
1.632,   1.007e-2