File: Experimental Records, Raw Data, and Supplementary Notes and Figures/batch3/final500/B3_VARIANCE_500_#2_Full(#10)-349mV.txt
Feb. 22, 2023   14:21:41
Linear Sweep Voltammetry
File: d:\current work\al_oer\electrochemical test data\batch 3\500\B3_VARIANCE_500_#2_Full(#10)-349mV.txt
Data Source:  Experiment
Instrument Model:  CHI660E
Header:
Note:

Init E (V) = 1.100

Final E (V) = 1.799

Scan Rate (V/s) = 0.010
Sample Interval (V) = 0.001
Quiet Time (sec) = 2
Sensitivity (A/V) = 0.001
Comp R (ohm) = 5.6

Results:

Channel 1:
Ep = 1.487V
ip = 7.388e-3A
Ah = 1.160e-1C

Potential/V, Current/A
1.100,   3.513e-5
1.101,   3.362e-5
1.102,   3.194e-5
1.103,   3.034e-5
1.104,   2.889e-5
1.105,   2.758e-5
1.106,   2.644e-5
1.107,   2.544e-5
1.108,   2.445e-5
1.109,   2.360e-5
1.110,   2.280e-5
1.111,   2.206e-5
1.112,   2.137e-5
1.113,   2.077e-5
1.114,   2.021e-5
1.115,   1.965e-5
1.116,   1.909e-5
1.117,   1.864e-5
1.118,   1.823e-5
1.119,   1.782e-5
1.120,   1.746e-5
1.121,   1.713e-5
1.122,   1.680e-5
1.123,   1.652e-5
1.124,   1.623e-5
1.125,   1.594e-5
1.126,   1.568e-5
1.127,   1.543e-5
1.128,   1.520e-5
1.129,   1.499e-5
1.130,   1.481e-5
1.131,   1.462e-5
1.132,   1.442e-5
1.133,   1.425e-5
1.134,   1.409e-5
1.135,   1.392e-5
1.136,   1.379e-5
1.137,   1.365e-5
1.138,   1.351e-5
1.139,   1.341e-5
1.140,   1.325e-5
1.141,   1.313e-5
1.142,   1.301e-5
1.143,   1.294e-5
1.144,   1.286e-5
1.145,   1.276e-5
1.146,   1.267e-5
1.147,   1.260e-5
1.148,   1.251e-5
1.149,   1.243e-5
1.150,   1.234e-5
1.151,   1.228e-5
1.152,   1.223e-5
1.153,   1.221e-5
1.154,   1.212e-5
1.155,   1.209e-5
1.156,   1.200e-5
1.157,   1.196e-5
1.158,   1.194e-5
1.159,   1.189e-5
1.160,   1.184e-5
1.161,   1.179e-5
1.162,   1.176e-5
1.163,   1.172e-5
1.164,   1.168e-5
1.165,   1.170e-5
1.166,   1.165e-5
1.167,   1.161e-5
1.168,   1.160e-5
1.169,   1.158e-5
1.170,   1.152e-5
1.171,   1.153e-5
1.172,   1.152e-5
1.173,   1.152e-5
1.174,   1.151e-5
1.175,   1.149e-5
1.176,   1.147e-5
1.177,   1.146e-5
1.178,   1.148e-5
1.179,   1.147e-5
1.180,   1.144e-5
1.181,   1.144e-5
1.182,   1.145e-5
1.183,   1.143e-5
1.184,   1.145e-5
1.185,   1.146e-5
1.186,   1.145e-5
1.187,   1.145e-5
1.188,   1.146e-5
1.189,   1.145e-5
1.190,   1.145e-5
1.191,   1.145e-5
1.192,   1.148e-5
1.193,   1.149e-5
1.194,   1.147e-5
1.195,   1.152e-5
1.196,   1.152e-5
1.197,   1.152e-5
1.198,   1.155e-5
1.199,   1.154e-5
1.200,   1.158e-5
1.201,   1.158e-5
1.202,   1.158e-5
1.203,   1.164e-5
1.204,   1.164e-5
1.205,   1.163e-5
1.206,   1.169e-5
1.207,   1.169e-5
1.208,   1.169e-5
1.209,   1.169e-5
1.210,   1.174e-5
1.211,   1.177e-5
1.212,   1.176e-5
1.213,   1.180e-5
1.214,   1.183e-5
1.215,   1.185e-5
1.216,   1.187e-5
1.217,   1.188e-5
1.218,   1.189e-5
1.219,   1.192e-5
1.220,   1.193e-5
1.221,   1.197e-5
1.222,   1.201e-5
1.223,   1.202e-5
1.224,   1.205e-5
1.225,   1.207e-5
1.226,   1.211e-5
1.227,   1.213e-5
1.228,   1.212e-5
1.229,   1.216e-5
1.230,   1.221e-5
1.231,   1.221e-5
1.232,   1.226e-5
1.233,   1.226e-5
1.234,   1.225e-5
1.235,   1.231e-5
1.236,   1.234e-5
1.237,   1.235e-5
1.238,   1.235e-5
1.239,   1.239e-5
1.240,   1.244e-5
1.241,   1.242e-5
1.242,   1.247e-5
1.243,   1.248e-5
1.244,   1.250e-5
1.245,   1.252e-5
1.246,   1.256e-5
1.247,   1.260e-5
1.248,   1.263e-5
1.249,   1.265e-5
1.250,   1.266e-5
1.251,   1.271e-5
1.252,   1.270e-5
1.253,   1.273e-5
1.254,   1.280e-5
1.255,   1.280e-5
1.256,   1.283e-5
1.257,   1.283e-5
1.258,   1.287e-5
1.259,   1.290e-5
1.260,   1.297e-5
1.261,   1.297e-5
1.262,   1.299e-5
1.263,   1.300e-5
1.264,   1.304e-5
1.265,   1.306e-5
1.266,   1.310e-5
1.267,   1.314e-5
1.268,   1.313e-5
1.269,   1.316e-5
1.270,   1.322e-5
1.271,   1.324e-5
1.272,   1.328e-5
1.273,   1.331e-5
1.274,   1.333e-5
1.275,   1.336e-5
1.276,   1.336e-5
1.277,   1.342e-5
1.278,   1.344e-5
1.279,   1.346e-5
1.280,   1.351e-5
1.281,   1.353e-5
1.282,   1.357e-5
1.283,   1.360e-5
1.284,   1.362e-5
1.285,   1.368e-5
1.286,   1.370e-5
1.287,   1.374e-5
1.288,   1.376e-5
1.289,   1.379e-5
1.290,   1.381e-5
1.291,   1.386e-5
1.292,   1.386e-5
1.293,   1.390e-5
1.294,   1.396e-5
1.295,   1.398e-5
1.296,   1.404e-5
1.297,   1.406e-5
1.298,   1.410e-5
1.299,   1.414e-5
1.300,   1.419e-5
1.301,   1.422e-5
1.302,   1.429e-5
1.303,   1.428e-5
1.304,   1.433e-5
1.305,   1.437e-5
1.306,   1.442e-5
1.307,   1.446e-5
1.308,   1.448e-5
1.309,   1.452e-5
1.310,   1.458e-5
1.311,   1.462e-5
1.312,   1.468e-5
1.313,   1.472e-5
1.314,   1.473e-5
1.315,   1.483e-5
1.316,   1.487e-5
1.317,   1.489e-5
1.318,   1.492e-5
1.319,   1.497e-5
1.320,   1.502e-5
1.321,   1.506e-5
1.322,   1.512e-5
1.323,   1.519e-5
1.324,   1.522e-5
1.325,   1.530e-5
1.326,   1.534e-5
1.327,   1.537e-5
1.328,   1.544e-5
1.329,   1.548e-5
1.330,   1.555e-5
1.331,   1.559e-5
1.332,   1.562e-5
1.333,   1.568e-5
1.334,   1.574e-5
1.335,   1.582e-5
1.336,   1.587e-5
1.337,   1.589e-5
1.338,   1.597e-5
1.339,   1.604e-5
1.340,   1.608e-5
1.341,   1.614e-5
1.342,   1.621e-5
1.343,   1.624e-5
1.344,   1.632e-5
1.345,   1.640e-5
1.346,   1.645e-5
1.347,   1.650e-5
1.348,   1.654e-5
1.349,   1.667e-5
1.350,   1.671e-5
1.351,   1.676e-5
1.352,   1.682e-5
1.353,   1.686e-5
1.354,   1.693e-5
1.355,   1.701e-5
1.356,   1.706e-5
1.357,   1.714e-5
1.358,   1.719e-5
1.359,   1.723e-5
1.360,   1.732e-5
1.361,   1.738e-5
1.362,   1.744e-5
1.363,   1.754e-5
1.364,   1.761e-5
1.365,   1.768e-5
1.366,   1.776e-5
1.367,   1.783e-5
1.368,   1.792e-5
1.369,   1.799e-5
1.370,   1.803e-5
1.371,   1.812e-5
1.372,   1.820e-5
1.373,   1.830e-5
1.374,   1.837e-5
1.375,   1.846e-5
1.376,   1.857e-5
1.377,   1.867e-5
1.378,   1.873e-5
1.379,   1.886e-5
1.380,   1.893e-5
1.381,   1.904e-5
1.382,   1.912e-5
1.383,   1.923e-5
1.384,   1.934e-5
1.385,   1.941e-5
1.386,   1.956e-5
1.387,   1.969e-5
1.388,   1.983e-5
1.389,   1.998e-5
1.390,   2.011e-5
1.391,   2.027e-5
1.392,   2.051e-5
1.393,   2.069e-5
1.394,   2.082e-5
1.395,   2.090e-5
1.396,   2.102e-5
1.397,   2.114e-5
1.398,   2.131e-5
1.399,   2.145e-5
1.400,   2.163e-5
1.401,   2.175e-5
1.402,   2.189e-5
1.403,   2.209e-5
1.404,   2.228e-5
1.405,   2.246e-5
1.406,   2.270e-5
1.407,   2.291e-5
1.408,   2.316e-5
1.409,   2.338e-5
1.410,   2.366e-5
1.411,   2.395e-5
1.412,   2.421e-5
1.413,   2.451e-5
1.414,   2.482e-5
1.415,   2.514e-5
1.416,   2.551e-5
1.417,   2.586e-5
1.418,   2.622e-5
1.419,   2.661e-5
1.420,   2.699e-5
1.421,   2.741e-5
1.422,   2.786e-5
1.423,   2.828e-5
1.424,   2.880e-5
1.425,   2.930e-5
1.426,   2.981e-5
1.427,   3.036e-5
1.428,   3.093e-5
1.429,   3.154e-5
1.430,   3.218e-5
1.431,   3.277e-5
1.432,   3.347e-5
1.433,   3.421e-5
1.434,   3.494e-5
1.435,   3.574e-5
1.436,   3.652e-5
1.437,   3.735e-5
1.438,   3.815e-5
1.439,   3.904e-5
1.440,   4.002e-5
1.441,   4.102e-5
1.442,   4.207e-5
1.443,   4.320e-5
1.444,   4.431e-5
1.445,   4.549e-5
1.446,   4.673e-5
1.447,   4.804e-5
1.448,   4.940e-5
1.449,   5.083e-5
1.450,   5.231e-5
1.451,   5.387e-5
1.452,   5.548e-5
1.453,   5.720e-5
1.454,   5.901e-5
1.455,   6.090e-5
1.456,   6.288e-5
1.457,   6.486e-5
1.458,   6.697e-5
1.459,   6.918e-5
1.460,   7.148e-5
1.461,   7.393e-5
1.462,   7.653e-5
1.463,   7.917e-5
1.464,   8.184e-5
1.465,   8.463e-5
1.466,   8.765e-5
1.467,   9.074e-5
1.468,   9.388e-5
1.469,   9.716e-5
1.470,   1.006e-4
1.471,   1.042e-4
1.472,   1.080e-4
1.473,   1.119e-4
1.474,   1.161e-4
1.475,   1.203e-4
1.476,   1.248e-4
1.477,   1.292e-4
1.478,   1.339e-4
1.479,   1.388e-4
1.480,   1.439e-4
1.481,   1.492e-4
1.482,   1.546e-4
1.483,   1.603e-4
1.484,   1.660e-4
1.485,   1.720e-4
1.486,   1.788e-4
1.487,   1.859e-4
1.488,   1.919e-4
1.489,   1.985e-4
1.490,   2.054e-4
1.491,   2.126e-4
1.492,   2.201e-4
1.493,   2.279e-4
1.494,   2.359e-4
1.495,   2.441e-4
1.496,   2.526e-4
1.497,   2.612e-4
1.498,   2.700e-4
1.499,   2.792e-4
1.500,   2.885e-4
1.501,   2.980e-4
1.502,   3.079e-4
1.503,   3.181e-4
1.504,   3.286e-4
1.505,   3.390e-4
1.506,   3.498e-4
1.507,   3.608e-4
1.508,   3.720e-4
1.509,   3.834e-4
1.510,   3.952e-4
1.511,   4.072e-4
1.512,   4.194e-4
1.513,   4.322e-4
1.514,   4.451e-4
1.515,   4.582e-4
1.516,   4.715e-4
1.517,   4.849e-4
1.518,   4.987e-4
1.519,   5.125e-4
1.520,   5.269e-4
1.521,   5.415e-4
1.522,   5.566e-4
1.523,   5.717e-4
1.524,   5.868e-4
1.525,   6.022e-4
1.526,   6.179e-4
1.527,   6.339e-4
1.528,   6.501e-4
1.529,   6.667e-4
1.530,   6.832e-4
1.531,   7.007e-4
1.532,   7.182e-4
1.533,   7.356e-4
1.534,   7.533e-4
1.535,   7.714e-4
1.536,   7.899e-4
1.537,   8.092e-4
1.538,   8.278e-4
1.539,   8.469e-4
1.540,   8.664e-4
1.541,   8.860e-4
1.542,   9.060e-4
1.543,   9.260e-4
1.544,   9.467e-4
1.545,   9.674e-4
1.546,   9.893e-4
1.547,   1.011e-3
1.548,   1.033e-3
1.549,   1.058e-3
1.550,   1.080e-3
1.551,   1.104e-3
1.552,   1.127e-3
1.553,   1.150e-3
1.554,   1.174e-3
1.555,   1.199e-3
1.556,   1.226e-3
1.557,   1.251e-3
1.558,   1.275e-3
1.559,   1.300e-3
1.560,   1.324e-3
1.561,   1.350e-3
1.562,   1.376e-3
1.563,   1.403e-3
1.564,   1.431e-3
1.565,   1.461e-3
1.566,   1.489e-3
1.567,   1.518e-3
1.568,   1.547e-3
1.569,   1.576e-3
1.570,   1.607e-3
1.571,   1.636e-3
1.572,   1.668e-3
1.573,   1.701e-3
1.574,   1.735e-3
1.575,   1.770e-3
1.576,   1.802e-3
1.577,   1.836e-3
1.578,   1.870e-3
1.579,   1.909e-3
1.580,   1.950e-3
1.581,   1.985e-3
1.582,   2.023e-3
1.583,   2.067e-3
1.584,   2.101e-3
1.585,   2.138e-3
1.586,   2.174e-3
1.587,   2.212e-3
1.588,   2.251e-3
1.589,   2.289e-3
1.590,   2.328e-3
1.591,   2.373e-3
1.592,   2.417e-3
1.593,   2.462e-3
1.594,   2.506e-3
1.595,   2.549e-3
1.596,   2.592e-3
1.597,   2.636e-3
1.598,   2.695e-3
1.599,   2.774e-3
1.600,   2.822e-3
1.601,   2.869e-3
1.602,   2.923e-3
1.603,   2.971e-3
1.604,   3.016e-3
1.605,   3.063e-3
1.606,   3.112e-3
1.607,   3.167e-3
1.608,   3.236e-3
1.609,   3.296e-3
1.610,   3.353e-3
1.611,   3.413e-3
1.612,   3.471e-3
1.613,   3.527e-3
1.614,   3.622e-3
1.615,   3.681e-3
1.616,   3.732e-3
1.617,   3.797e-3
1.618,   3.847e-3
1.619,   3.905e-3
1.620,   3.957e-3
1.621,   4.023e-3
1.622,   4.089e-3
1.623,   4.145e-3
1.624,   4.250e-3
1.625,   4.343e-3
1.626,   4.404e-3
1.627,   4.504e-3
1.628,   4.575e-3
1.629,   4.701e-3
1.630,   4.789e-3
1.631,   4.846e-3
1.632,   4.882e-3
1.633,   4.933e-3
1.634,   5.042e-3
1.635,   5.113e-3
1.636,   5.184e-3
1.637,   5.229e-3
1.638,   5.399e-3
1.639,   5.584e-3
1.640,   5.576e-3
1.641,   5.634e-3
1.642,   5.703e-3
1.643,   5.747e-3
1.644,   5.818e-3
1.645,   5.912e-3
1.646,   5.962e-3
1.647,   6.063e-3
1.648,   6.306e-3
1.649,   6.341e-3
1.650,   6.394e-3
1.651,   6.508e-3
1.652,   6.556e-3
1.653,   6.584e-3
1.654,   6.604e-3
1.655,   6.656e-3
1.656,   6.817e-3
1.657,   6.886e-3
1.658,   6.900e-3
1.659,   6.963e-3
1.660,   7.047e-3
1.661,   7.143e-3
1.662,   7.180e-3
1.663,   7.243e-3
1.664,   7.278e-3
1.665,   7.295e-3
1.666,   7.251e-3
1.667,   7.271e-3
1.668,   7.365e-3
1.669,   7.441e-3
1.670,   7.433e-3
1.671,   7.447e-3
1.672,   7.408e-3
1.673,   7.382e-3
1.674,   7.560e-3
1.675,   7.535e-3
1.676,   7.507e-3
1.677,   7.499e-3
1.678,   7.429e-3
1.679,   7.566e-3
1.680,   7.635e-3
1.681,   7.542e-3
1.682,   7.551e-3
1.683,   7.521e-3
1.684,   7.429e-3
1.685,   7.408e-3
1.686,   7.636e-3
1.687,   7.559e-3
1.688,   7.489e-3
1.689,   7.445e-3
1.690,   7.472e-3
1.691,   7.553e-3
1.692,   7.584e-3
1.693,   7.517e-3
1.694,   7.453e-3
1.695,   7.406e-3
1.696,   7.418e-3
1.697,   7.481e-3
1.698,   7.400e-3
1.699,   7.420e-3
1.700,   7.386e-3
1.701,   7.364e-3
1.702,   7.353e-3
1.703,   7.278e-3
1.704,   7.182e-3
1.705,   7.267e-3
1.706,   7.227e-3
1.707,   7.152e-3
1.708,   7.097e-3
1.709,   7.119e-3
1.710,   7.082e-3
1.711,   7.018e-3
1.712,   6.991e-3
1.713,   7.008e-3
1.714,   7.084e-3
1.715,   7.028e-3
1.716,   6.932e-3
1.717,   6.861e-3
1.718,   6.893e-3
1.719,   6.872e-3
1.720,   6.804e-3
1.721,   6.776e-3
1.722,   6.749e-3
1.723,   6.697e-3
1.724,   6.623e-3
1.725,   6.557e-3
1.726,   6.502e-3
1.727,   6.546e-3
1.728,   6.501e-3
1.729,   6.446e-3
1.730,   6.428e-3
1.731,   6.364e-3
1.732,   6.276e-3
1.733,   6.180e-3
1.734,   6.123e-3
1.735,   6.079e-3
1.736,   6.072e-3
1.737,   6.145e-3
1.738,   6.077e-3
1.739,   6.017e-3
1.740,   5.929e-3
1.741,   5.900e-3
1.742,   5.874e-3
1.743,   5.862e-3
1.744,   5.785e-3
1.745,   5.706e-3
1.746,   5.650e-3
1.747,   5.597e-3
1.748,   5.556e-3
1.749,   5.516e-3
1.750,   5.460e-3
1.751,   5.405e-3
1.752,   5.435e-3
1.753,   5.349e-3
1.754,   5.271e-3
1.755,   5.228e-3
1.756,   5.208e-3
1.757,   5.131e-3
1.758,   5.168e-3
1.759,   5.181e-3
1.760,   5.143e-3
1.761,   5.068e-3
1.762,   5.001e-3
1.763,   4.953e-3
1.764,   4.901e-3
1.765,   4.832e-3
1.766,   4.781e-3
1.767,   4.740e-3
1.768,   4.728e-3
1.769,   4.726e-3
1.770,   4.641e-3
1.771,   4.574e-3
1.772,   4.525e-3
1.773,   4.482e-3
1.774,   4.429e-3
1.775,   4.377e-3
1.776,   4.347e-3
1.777,   4.309e-3
1.778,   4.277e-3
1.779,   4.221e-3
1.780,   4.164e-3
1.781,   4.137e-3
1.782,   4.093e-3
1.783,   4.047e-3
1.784,   4.000e-3
1.785,   3.966e-3
1.786,   3.968e-3
1.787,   3.914e-3
1.788,   3.868e-3
1.789,   3.822e-3
1.790,   3.783e-3
1.791,   3.739e-3
1.792,   3.694e-3
1.793,   3.661e-3
1.794,   3.620e-3
1.795,   3.583e-3
1.796,   3.545e-3
1.797,   3.543e-3
1.798,   3.520e-3
1.799,   3.475e-3