File: Experimental Records and Raw Data/batch3/final500/B3_BEST_500_#7_Full-266mV.txt
Feb. 24, 2023   14:14:53
Linear Sweep Voltammetry
File: d:\current work\al_oer\electrochemical test data\batch 3\500\B3_BEST_500_#7_Full-266mV.txt
Data Source:  Experiment
Instrument Model:  CHI660E
Header:
Note:

Init E (V) = 1.102

Final E (V) = 1.665

Scan Rate (V/s) = 0.010
Sample Interval (V) = 0.001
Quiet Time (sec) = 2
Sensitivity (A/V) = 0.001
Comp R (ohm) = 4.6

Results:

Channel 1:

Potential/V, Current/A
1.102,   3.913e-4
1.103,   3.564e-4
1.104,   3.247e-4
1.105,   2.966e-4
1.106,   2.723e-4
1.107,   2.512e-4
1.108,   2.328e-4
1.109,   2.168e-4
1.110,   2.025e-4
1.111,   1.901e-4
1.112,   1.791e-4
1.113,   1.693e-4
1.114,   1.605e-4
1.115,   1.525e-4
1.116,   1.454e-4
1.117,   1.390e-4
1.118,   1.330e-4
1.119,   1.277e-4
1.120,   1.230e-4
1.121,   1.186e-4
1.122,   1.146e-4
1.123,   1.109e-4
1.124,   1.075e-4
1.125,   1.044e-4
1.126,   1.014e-4
1.127,   9.878e-5
1.128,   9.629e-5
1.129,   9.406e-5
1.130,   9.201e-5
1.131,   8.997e-5
1.132,   8.816e-5
1.133,   8.653e-5
1.134,   8.481e-5
1.135,   8.343e-5
1.136,   8.206e-5
1.137,   8.071e-5
1.138,   7.950e-5
1.139,   7.832e-5
1.140,   7.723e-5
1.141,   7.626e-5
1.142,   7.526e-5
1.143,   7.435e-5
1.144,   7.346e-5
1.145,   7.265e-5
1.146,   7.193e-5
1.147,   7.116e-5
1.148,   7.049e-5
1.149,   6.987e-5
1.150,   6.925e-5
1.151,   6.865e-5
1.152,   6.814e-5
1.153,   6.756e-5
1.154,   6.713e-5
1.155,   6.659e-5
1.156,   6.624e-5
1.157,   6.584e-5
1.158,   6.536e-5
1.159,   6.505e-5
1.160,   6.470e-5
1.161,   6.436e-5
1.162,   6.405e-5
1.163,   6.373e-5
1.164,   6.342e-5
1.165,   6.318e-5
1.166,   6.282e-5
1.167,   6.264e-5
1.168,   6.233e-5
1.169,   6.211e-5
1.170,   6.197e-5
1.171,   6.169e-5
1.172,   6.148e-5
1.173,   6.136e-5
1.174,   6.118e-5
1.175,   6.103e-5
1.176,   6.081e-5
1.177,   6.058e-5
1.178,   6.055e-5
1.179,   6.039e-5
1.180,   6.024e-5
1.181,   6.015e-5
1.182,   5.996e-5
1.183,   5.984e-5
1.184,   5.972e-5
1.185,   5.964e-5
1.186,   5.963e-5
1.187,   5.951e-5
1.188,   5.938e-5
1.189,   5.932e-5
1.190,   5.920e-5
1.191,   5.918e-5
1.192,   5.906e-5
1.193,   5.894e-5
1.194,   5.902e-5
1.195,   5.883e-5
1.196,   5.878e-5
1.197,   5.876e-5
1.198,   5.871e-5
1.199,   5.873e-5
1.200,   5.878e-5
1.201,   5.863e-5
1.202,   5.868e-5
1.203,   5.858e-5
1.204,   5.849e-5
1.205,   5.851e-5
1.206,   5.840e-5
1.207,   5.845e-5
1.208,   5.845e-5
1.209,   5.839e-5
1.210,   5.839e-5
1.211,   5.835e-5
1.212,   5.835e-5
1.213,   5.837e-5
1.214,   5.833e-5
1.215,   5.838e-5
1.216,   5.841e-5
1.217,   5.825e-5
1.218,   5.840e-5
1.219,   5.832e-5
1.220,   5.835e-5
1.221,   5.842e-5
1.222,   5.837e-5
1.223,   5.838e-5
1.224,   5.837e-5
1.225,   5.849e-5
1.226,   5.849e-5
1.227,   5.848e-5
1.228,   5.848e-5
1.229,   5.846e-5
1.230,   5.842e-5
1.231,   5.853e-5
1.232,   5.852e-5
1.233,   5.852e-5
1.234,   5.855e-5
1.235,   5.858e-5
1.236,   5.863e-5
1.237,   5.860e-5
1.238,   5.865e-5
1.239,   5.868e-5
1.240,   5.873e-5
1.241,   5.870e-5
1.242,   5.883e-5
1.243,   5.881e-5
1.244,   5.887e-5
1.245,   5.897e-5
1.246,   5.890e-5
1.247,   5.903e-5
1.248,   5.899e-5
1.249,   5.892e-5
1.250,   5.911e-5
1.251,   5.919e-5
1.252,   5.919e-5
1.253,   5.928e-5
1.254,   5.917e-5
1.255,   5.932e-5
1.256,   5.936e-5
1.257,   5.936e-5
1.258,   5.950e-5
1.259,   5.951e-5
1.260,   5.953e-5
1.261,   5.961e-5
1.262,   5.962e-5
1.263,   5.974e-5
1.264,   5.985e-5
1.265,   5.982e-5
1.266,   6.003e-5
1.267,   5.999e-5
1.268,   6.006e-5
1.269,   6.012e-5
1.270,   6.017e-5
1.271,   6.019e-5
1.272,   6.034e-5
1.273,   6.032e-5
1.274,   6.040e-5
1.275,   6.049e-5
1.276,   6.060e-5
1.277,   6.067e-5
1.278,   6.068e-5
1.279,   6.074e-5
1.280,   6.081e-5
1.281,   6.088e-5
1.282,   6.100e-5
1.283,   6.107e-5
1.284,   6.112e-5
1.285,   6.132e-5
1.286,   6.130e-5
1.287,   6.148e-5
1.288,   6.152e-5
1.289,   6.164e-5
1.290,   6.170e-5
1.291,   6.169e-5
1.292,   6.180e-5
1.293,   6.197e-5
1.294,   6.192e-5
1.295,   6.209e-5
1.296,   6.219e-5
1.297,   6.220e-5
1.298,   6.244e-5
1.299,   6.244e-5
1.300,   6.254e-5
1.301,   6.274e-5
1.302,   6.280e-5
1.303,   6.294e-5
1.304,   6.304e-5
1.305,   6.306e-5
1.306,   6.322e-5
1.307,   6.324e-5
1.308,   6.342e-5
1.309,   6.358e-5
1.310,   6.356e-5
1.311,   6.374e-5
1.312,   6.387e-5
1.313,   6.389e-5
1.314,   6.409e-5
1.315,   6.423e-5
1.316,   6.439e-5
1.317,   6.444e-5
1.318,   6.449e-5
1.319,   6.471e-5
1.320,   6.487e-5
1.321,   6.495e-5
1.322,   6.504e-5
1.323,   6.509e-5
1.324,   6.523e-5
1.325,   6.546e-5
1.326,   6.548e-5
1.327,   6.575e-5
1.328,   6.596e-5
1.329,   6.597e-5
1.330,   6.614e-5
1.331,   6.621e-5
1.332,   6.645e-5
1.333,   6.665e-5
1.334,   6.671e-5
1.335,   6.688e-5
1.336,   6.701e-5
1.337,   6.713e-5
1.338,   6.738e-5
1.339,   6.750e-5
1.340,   6.768e-5
1.341,   6.793e-5
1.342,   6.804e-5
1.343,   6.824e-5
1.344,   6.845e-5
1.345,   6.851e-5
1.346,   6.880e-5
1.347,   6.894e-5
1.348,   6.909e-5
1.349,   6.939e-5
1.350,   6.949e-5
1.351,   6.975e-5
1.352,   6.992e-5
1.353,   7.019e-5
1.354,   7.045e-5
1.355,   7.053e-5
1.356,   7.086e-5
1.357,   7.108e-5
1.358,   7.127e-5
1.359,   7.160e-5
1.360,   7.189e-5
1.361,   7.209e-5
1.362,   7.246e-5
1.363,   7.263e-5
1.364,   7.292e-5
1.365,   7.330e-5
1.366,   7.362e-5
1.367,   7.391e-5
1.368,   7.432e-5
1.369,   7.459e-5
1.370,   7.502e-5
1.371,   7.533e-5
1.372,   7.580e-5
1.373,   7.630e-5
1.374,   7.655e-5
1.375,   7.708e-5
1.376,   7.751e-5
1.377,   7.804e-5
1.378,   7.862e-5
1.379,   7.919e-5
1.380,   7.973e-5
1.381,   8.038e-5
1.382,   8.091e-5
1.383,   8.162e-5
1.384,   8.232e-5
1.385,   8.307e-5
1.386,   8.390e-5
1.387,   8.467e-5
1.388,   8.557e-5
1.389,   8.652e-5
1.390,   8.736e-5
1.391,   8.851e-5
1.392,   8.967e-5
1.393,   9.079e-5
1.394,   9.214e-5
1.395,   9.336e-5
1.396,   9.475e-5
1.397,   9.628e-5
1.398,   9.786e-5
1.399,   9.953e-5
1.400,   1.014e-4
1.401,   1.032e-4
1.402,   1.053e-4
1.403,   1.073e-4
1.404,   1.097e-4
1.405,   1.122e-4
1.406,   1.147e-4
1.407,   1.174e-4
1.408,   1.203e-4
1.409,   1.233e-4
1.410,   1.266e-4
1.411,   1.299e-4
1.412,   1.334e-4
1.413,   1.373e-4
1.414,   1.412e-4
1.415,   1.455e-4
1.416,   1.499e-4
1.417,   1.546e-4
1.418,   1.596e-4
1.419,   1.647e-4
1.420,   1.701e-4
1.421,   1.759e-4
1.422,   1.818e-4
1.423,   1.882e-4
1.424,   1.947e-4
1.425,   2.016e-4
1.426,   2.088e-4
1.427,   2.162e-4
1.428,   2.240e-4
1.429,   2.324e-4
1.430,   2.412e-4
1.431,   2.501e-4
1.432,   2.593e-4
1.433,   2.688e-4
1.434,   2.790e-4
1.435,   2.894e-4
1.436,   3.002e-4
1.437,   3.115e-4
1.438,   3.230e-4
1.439,   3.351e-4
1.440,   3.476e-4
1.441,   3.605e-4
1.442,   3.739e-4
1.443,   3.875e-4
1.444,   4.018e-4
1.445,   4.166e-4
1.446,   4.317e-4
1.447,   4.474e-4
1.448,   4.634e-4
1.449,   4.799e-4
1.450,   4.971e-4
1.451,   5.145e-4
1.452,   5.325e-4
1.453,   5.512e-4
1.454,   5.702e-4
1.455,   5.900e-4
1.456,   6.101e-4
1.457,   6.309e-4
1.458,   6.521e-4
1.459,   6.737e-4
1.460,   6.961e-4
1.461,   7.191e-4
1.462,   7.425e-4
1.463,   7.666e-4
1.464,   7.911e-4
1.465,   8.162e-4
1.466,   8.421e-4
1.467,   8.685e-4
1.468,   8.956e-4
1.469,   9.233e-4
1.470,   9.514e-4
1.471,   9.805e-4
1.472,   1.010e-3
1.473,   1.040e-3
1.474,   1.071e-3
1.475,   1.103e-3
1.476,   1.135e-3
1.477,   1.168e-3
1.478,   1.201e-3
1.479,   1.235e-3
1.480,   1.270e-3
1.481,   1.305e-3
1.482,   1.341e-3
1.483,   1.378e-3
1.484,   1.416e-3
1.485,   1.454e-3
1.486,   1.492e-3
1.487,   1.532e-3
1.488,   1.572e-3
1.489,   1.612e-3
1.490,   1.654e-3
1.491,   1.696e-3
1.492,   1.738e-3
1.493,   1.781e-3
1.494,   1.826e-3
1.495,   1.870e-3
1.496,   1.915e-3
1.497,   1.961e-3
1.498,   2.007e-3
1.499,   2.054e-3
1.500,   2.102e-3
1.501,   2.150e-3
1.502,   2.198e-3
1.503,   2.247e-3
1.504,   2.296e-3
1.505,   2.344e-3
1.506,   2.393e-3
1.507,   2.444e-3
1.508,   2.496e-3
1.509,   2.546e-3
1.510,   2.598e-3
1.511,   2.651e-3
1.512,   2.704e-3
1.513,   2.760e-3
1.514,   2.813e-3
1.515,   2.867e-3
1.516,   2.921e-3
1.517,   2.977e-3
1.518,   3.034e-3
1.519,   3.091e-3
1.520,   3.150e-3
1.521,   3.208e-3
1.522,   3.267e-3
1.523,   3.325e-3
1.524,   3.384e-3
1.525,   3.444e-3
1.526,   3.506e-3
1.527,   3.567e-3
1.528,   3.629e-3
1.529,   3.691e-3
1.530,   3.753e-3
1.531,   3.816e-3
1.532,   3.876e-3
1.533,   3.937e-3
1.534,   4.001e-3
1.535,   4.063e-3
1.536,   4.128e-3
1.537,   4.191e-3
1.538,   4.253e-3
1.539,   4.316e-3
1.540,   4.384e-3
1.541,   4.448e-3
1.542,   4.513e-3
1.543,   4.579e-3
1.544,   4.646e-3
1.545,   4.712e-3
1.546,   4.776e-3
1.547,   4.844e-3
1.548,   4.912e-3
1.549,   4.980e-3
1.550,   5.048e-3
1.551,   5.120e-3
1.552,   5.192e-3
1.553,   5.260e-3
1.554,   5.332e-3
1.555,   5.396e-3
1.556,   5.463e-3
1.557,   5.532e-3
1.558,   5.600e-3
1.559,   5.669e-3
1.560,   5.745e-3
1.561,   5.816e-3
1.562,   5.886e-3
1.563,   5.957e-3
1.564,   6.025e-3
1.565,   6.096e-3
1.566,   6.163e-3
1.567,   6.232e-3
1.568,   6.304e-3
1.569,   6.373e-3
1.570,   6.445e-3
1.571,   6.513e-3
1.572,   6.579e-3
1.573,   6.648e-3
1.574,   6.714e-3
1.575,   6.781e-3
1.576,   6.845e-3
1.577,   6.913e-3
1.578,   6.982e-3
1.579,   7.052e-3
1.580,   7.118e-3
1.581,   7.181e-3
1.582,   7.250e-3
1.583,   7.320e-3
1.584,   7.382e-3
1.585,   7.442e-3
1.586,   7.502e-3
1.587,   7.566e-3
1.588,   7.640e-3
1.589,   7.700e-3
1.590,   7.771e-3
1.591,   7.842e-3
1.592,   7.902e-3
1.593,   7.958e-3
1.594,   8.014e-3
1.595,   8.070e-3
1.596,   8.125e-3
1.597,   8.184e-3
1.598,   8.247e-3
1.599,   8.293e-3
1.600,   8.346e-3
1.601,   8.404e-3
1.602,   8.460e-3
1.603,   8.518e-3
1.604,   8.575e-3
1.605,   8.630e-3
1.606,   8.672e-3
1.607,   8.719e-3
1.608,   8.776e-3
1.609,   8.827e-3
1.610,   8.877e-3
1.611,   8.923e-3
1.612,   8.974e-3
1.613,   9.018e-3
1.614,   9.059e-3
1.615,   9.098e-3
1.616,   9.132e-3
1.617,   9.175e-3
1.618,   9.215e-3
1.619,   9.255e-3
1.620,   9.291e-3
1.621,   9.319e-3
1.622,   9.340e-3
1.623,   9.367e-3
1.624,   9.394e-3
1.625,   9.421e-3
1.626,   9.442e-3
1.627,   9.471e-3
1.628,   9.497e-3
1.629,   9.526e-3
1.630,   9.545e-3
1.631,   9.569e-3
1.632,   9.589e-3
1.633,   9.607e-3
1.634,   9.630e-3
1.635,   9.642e-3
1.636,   9.657e-3
1.637,   9.666e-3
1.638,   9.676e-3
1.639,   9.689e-3
1.640,   9.696e-3
1.641,   9.716e-3
1.642,   9.730e-3
1.643,   9.734e-3
1.644,   9.738e-3
1.645,   9.750e-3
1.646,   9.749e-3
1.647,   9.753e-3
1.648,   9.758e-3
1.649,   9.754e-3
1.650,   9.751e-3
1.651,   9.740e-3
1.652,   9.730e-3
1.653,   9.719e-3
1.654,   9.698e-3
1.655,   9.688e-3
1.656,   9.671e-3
1.657,   9.655e-3
1.658,   9.640e-3
1.659,   9.626e-3
1.660,   9.602e-3
1.661,   9.577e-3
1.662,   9.550e-3
1.663,   9.532e-3
1.664,   9.513e-3
1.665,   9.482e-3