File: Experimental Records and Raw Data/batch3/final500/B3_BEST_500_#4_High_Quality(#17)-217mV.txt
Feb. 24, 2023   13:51:14
Linear Sweep Voltammetry
File: d:\current work\al_oer\electrochemical test data\batch 3\500\B3_BEST_500_#4_High_Quality(#17)-217mV.txt
Data Source:  Experiment
Instrument Model:  CHI660E
Header:
Note:

Init E (V) = 1.099

Final E (V) = 1.507

Scan Rate (V/s) = 0.010
Sample Interval (V) = 0.001
Quiet Time (sec) = 2
Sensitivity (A/V) = 0.001
Comp R (ohm) = 4.8

Results:

Channel 1:

Potential/V, Current/A
1.099,   8.119e-5
1.100,   9.887e-5
1.101,   9.627e-5
1.102,   9.295e-5
1.103,   8.921e-5
1.104,   8.629e-5
1.105,   8.374e-5
1.106,   8.178e-5
1.107,   7.965e-5
1.108,   7.789e-5
1.109,   7.649e-5
1.110,   7.492e-5
1.111,   7.400e-5
1.112,   7.307e-5
1.113,   7.192e-5
1.114,   7.096e-5
1.115,   6.969e-5
1.116,   6.902e-5
1.117,   6.850e-5
1.118,   6.754e-5
1.119,   6.727e-5
1.120,   6.678e-5
1.121,   6.603e-5
1.122,   6.586e-5
1.123,   6.513e-5
1.124,   6.489e-5
1.125,   6.466e-5
1.126,   6.413e-5
1.127,   6.405e-5
1.128,   6.374e-5
1.129,   6.337e-5
1.130,   6.342e-5
1.131,   6.282e-5
1.132,   6.281e-5
1.133,   6.271e-5
1.134,   6.236e-5
1.135,   6.237e-5
1.136,   6.211e-5
1.137,   6.196e-5
1.138,   6.215e-5
1.139,   6.177e-5
1.140,   6.178e-5
1.141,   6.180e-5
1.142,   6.151e-5
1.143,   6.167e-5
1.144,   6.151e-5
1.145,   6.151e-5
1.146,   6.162e-5
1.147,   6.136e-5
1.148,   6.238e-5
1.149,   6.269e-5
1.150,   6.223e-5
1.151,   6.232e-5
1.152,   6.209e-5
1.153,   6.170e-5
1.154,   6.204e-5
1.155,   6.175e-5
1.156,   6.176e-5
1.157,   6.197e-5
1.158,   6.170e-5
1.159,   6.192e-5
1.160,   6.197e-5
1.161,   6.185e-5
1.162,   6.212e-5
1.163,   6.182e-5
1.164,   6.199e-5
1.165,   6.210e-5
1.166,   6.180e-5
1.167,   6.217e-5
1.168,   6.214e-5
1.169,   6.210e-5
1.170,   6.245e-5
1.171,   6.236e-5
1.172,   6.234e-5
1.173,   6.249e-5
1.174,   6.230e-5
1.175,   6.267e-5
1.176,   6.263e-5
1.177,   6.269e-5
1.178,   6.302e-5
1.179,   6.275e-5
1.180,   6.297e-5
1.181,   6.320e-5
1.182,   6.309e-5
1.183,   6.347e-5
1.184,   6.339e-5
1.185,   6.337e-5
1.186,   6.375e-5
1.187,   6.350e-5
1.188,   6.360e-5
1.189,   6.388e-5
1.190,   6.369e-5
1.191,   6.409e-5
1.192,   6.397e-5
1.193,   6.397e-5
1.194,   6.420e-5
1.195,   6.403e-5
1.196,   6.428e-5
1.197,   6.452e-5
1.198,   6.435e-5
1.199,   6.464e-5
1.200,   6.458e-5
1.201,   6.449e-5
1.202,   6.488e-5
1.203,   6.466e-5
1.204,   6.482e-5
1.205,   6.496e-5
1.206,   6.478e-5
1.207,   6.516e-5
1.208,   6.520e-5
1.209,   6.560e-5
1.210,   6.563e-5
1.211,   6.518e-5
1.212,   6.543e-5
1.213,   6.567e-5
1.214,   6.536e-5
1.215,   6.554e-5
1.216,   6.555e-5
1.217,   6.542e-5
1.218,   6.574e-5
1.219,   6.543e-5
1.220,   6.553e-5
1.221,   6.570e-5
1.222,   6.603e-5
1.223,   6.602e-5
1.224,   6.580e-5
1.225,   6.575e-5
1.226,   6.608e-5
1.227,   6.568e-5
1.228,   6.594e-5
1.229,   6.599e-5
1.230,   6.571e-5
1.231,   6.606e-5
1.232,   6.586e-5
1.233,   6.591e-5
1.234,   6.618e-5
1.235,   6.601e-5
1.236,   6.596e-5
1.237,   6.611e-5
1.238,   6.581e-5
1.239,   6.616e-5
1.240,   6.602e-5
1.241,   6.600e-5
1.242,   6.623e-5
1.243,   6.585e-5
1.244,   6.600e-5
1.245,   6.627e-5
1.246,   6.581e-5
1.247,   6.620e-5
1.248,   6.614e-5
1.249,   6.593e-5
1.250,   6.614e-5
1.251,   6.579e-5
1.252,   6.595e-5
1.253,   6.607e-5
1.254,   6.585e-5
1.255,   6.596e-5
1.256,   6.588e-5
1.257,   6.578e-5
1.258,   6.603e-5
1.259,   6.568e-5
1.260,   6.586e-5
1.261,   6.598e-5
1.262,   6.565e-5
1.263,   6.585e-5
1.264,   6.578e-5
1.265,   6.570e-5
1.266,   6.591e-5
1.267,   6.563e-5
1.268,   6.566e-5
1.269,   6.579e-5
1.270,   6.546e-5
1.271,   6.583e-5
1.272,   6.560e-5
1.273,   6.571e-5
1.274,   6.586e-5
1.275,   6.552e-5
1.276,   6.549e-5
1.277,   6.579e-5
1.278,   6.537e-5
1.279,   6.565e-5
1.280,   6.560e-5
1.281,   6.544e-5
1.282,   6.566e-5
1.283,   6.530e-5
1.284,   6.546e-5
1.285,   6.555e-5
1.286,   6.545e-5
1.287,   6.579e-5
1.288,   6.544e-5
1.289,   6.542e-5
1.290,   6.573e-5
1.291,   6.532e-5
1.292,   6.561e-5
1.293,   6.566e-5
1.294,   6.541e-5
1.295,   6.564e-5
1.296,   6.545e-5
1.297,   6.548e-5
1.298,   6.580e-5
1.299,   6.551e-5
1.300,   6.557e-5
1.301,   6.579e-5
1.302,   6.544e-5
1.303,   6.585e-5
1.304,   6.562e-5
1.305,   6.560e-5
1.306,   6.599e-5
1.307,   6.554e-5
1.308,   6.579e-5
1.309,   6.600e-5
1.310,   6.577e-5
1.311,   6.603e-5
1.312,   6.603e-5
1.313,   6.593e-5
1.314,   6.621e-5
1.315,   6.600e-5
1.316,   6.618e-5
1.317,   6.634e-5
1.318,   6.611e-5
1.319,   6.647e-5
1.320,   6.645e-5
1.321,   6.642e-5
1.322,   6.679e-5
1.323,   6.643e-5
1.324,   6.702e-5
1.325,   6.715e-5
1.326,   6.679e-5
1.327,   6.720e-5
1.328,   6.703e-5
1.329,   6.709e-5
1.330,   6.740e-5
1.331,   6.736e-5
1.332,   6.748e-5
1.333,   6.777e-5
1.334,   6.764e-5
1.335,   6.802e-5
1.336,   6.794e-5
1.337,   6.814e-5
1.338,   6.858e-5
1.339,   6.835e-5
1.340,   6.867e-5
1.341,   6.893e-5
1.342,   6.878e-5
1.343,   6.923e-5
1.344,   6.945e-5
1.345,   6.936e-5
1.346,   6.990e-5
1.347,   6.978e-5
1.348,   7.008e-5
1.349,   7.051e-5
1.350,   7.063e-5
1.351,   7.100e-5
1.352,   7.107e-5
1.353,   7.118e-5
1.354,   7.181e-5
1.355,   7.179e-5
1.356,   7.221e-5
1.357,   7.275e-5
1.358,   7.275e-5
1.359,   7.343e-5
1.360,   7.361e-5
1.361,   7.396e-5
1.362,   7.477e-5
1.363,   7.496e-5
1.364,   7.559e-5
1.365,   7.627e-5
1.366,   7.649e-5
1.367,   7.724e-5
1.368,   7.776e-5
1.369,   7.860e-5
1.370,   7.955e-5
1.371,   7.984e-5
1.372,   8.078e-5
1.373,   8.197e-5
1.374,   8.260e-5
1.375,   8.398e-5
1.376,   8.517e-5
1.377,   8.604e-5
1.378,   8.763e-5
1.379,   8.875e-5
1.380,   9.048e-5
1.381,   9.210e-5
1.382,   9.372e-5
1.383,   9.583e-5
1.384,   9.779e-5
1.385,   9.999e-5
1.386,   1.027e-4
1.387,   1.050e-4
1.388,   1.080e-4
1.389,   1.112e-4
1.390,   1.141e-4
1.391,   1.181e-4
1.392,   1.219e-4
1.393,   1.260e-4
1.394,   1.307e-4
1.395,   1.352e-4
1.396,   1.407e-4
1.397,   1.464e-4
1.398,   1.522e-4
1.399,   1.592e-4
1.400,   1.661e-4
1.401,   1.739e-4
1.402,   1.821e-4
1.403,   1.906e-4
1.404,   2.001e-4
1.405,   2.102e-4
1.406,   2.208e-4
1.407,   2.327e-4
1.408,   2.451e-4
1.409,   2.582e-4
1.410,   2.725e-4
1.411,   2.872e-4
1.412,   3.036e-4
1.413,   3.208e-4
1.414,   3.387e-4
1.415,   3.584e-4
1.416,   3.785e-4
1.417,   4.000e-4
1.418,   4.233e-4
1.419,   4.473e-4
1.420,   4.732e-4
1.421,   5.003e-4
1.422,   5.286e-4
1.423,   5.589e-4
1.424,   5.905e-4
1.425,   6.239e-4
1.426,   6.594e-4
1.427,   6.968e-4
1.428,   7.355e-4
1.429,   7.763e-4
1.430,   8.185e-4
1.431,   8.631e-4
1.432,   9.097e-4
1.433,   9.590e-4
1.434,   1.013e-3
1.435,   1.065e-3
1.436,   1.122e-3
1.437,   1.179e-3
1.438,   1.239e-3
1.439,   1.302e-3
1.440,   1.368e-3
1.441,   1.438e-3
1.442,   1.509e-3
1.443,   1.583e-3
1.444,   1.664e-3
1.445,   1.742e-3
1.446,   1.824e-3
1.447,   1.911e-3
1.448,   2.001e-3
1.449,   2.093e-3
1.450,   2.188e-3
1.451,   2.284e-3
1.452,   2.382e-3
1.453,   2.490e-3
1.454,   2.597e-3
1.455,   2.710e-3
1.456,   2.824e-3
1.457,   2.944e-3
1.458,   3.069e-3
1.459,   3.203e-3
1.460,   3.339e-3
1.461,   3.465e-3
1.462,   3.600e-3
1.463,   3.729e-3
1.464,   3.870e-3
1.465,   4.032e-3
1.466,   4.204e-3
1.467,   4.357e-3
1.468,   4.499e-3
1.469,   4.649e-3
1.470,   4.853e-3
1.471,   5.052e-3
1.472,   5.211e-3
1.473,   5.362e-3
1.474,   5.536e-3
1.475,   5.710e-3
1.476,   5.874e-3
1.477,   6.053e-3
1.478,   6.241e-3
1.479,   6.448e-3
1.480,   6.612e-3
1.481,   6.831e-3
1.482,   7.067e-3
1.483,   7.287e-3
1.484,   7.505e-3
1.485,   7.650e-3
1.486,   7.842e-3
1.487,   8.092e-3
1.488,   8.323e-3
1.489,   8.581e-3
1.490,   8.746e-3
1.491,   8.999e-3
1.492,   9.153e-3
1.493,   9.387e-3
1.494,   9.610e-3
1.495,   9.965e-3
1.496,   1.007e-2
1.497,   1.007e-2
1.498,   1.007e-2
1.499,   1.007e-2
1.500,   1.007e-2
1.501,   1.007e-2
1.502,   1.007e-2
1.503,   1.007e-2
1.504,   1.007e-2
1.505,   1.007e-2
1.506,   1.007e-2
1.507,   1.007e-2