File: Experimental Records and Raw Data/batch3/final500/B3_BEST_500_#4_Full-238mV.txt
Feb. 22, 2023   13:13:56
Linear Sweep Voltammetry
File: d:\current work\al_oer\electrochemical test data\batch 3\500\B3_BEST_500_#4_Full-238mV.txt
Data Source:  Experiment
Instrument Model:  CHI660E
Header:
Note:

Init E (V) = 1.099

Final E (V) = 1.527

Scan Rate (V/s) = 0.010
Sample Interval (V) = 0.001
Quiet Time (sec) = 2
Sensitivity (A/V) = 0.001
Comp R (ohm) = 5.4

Results:

Channel 1:

Potential/V, Current/A
1.099,   1.371e-4
1.100,   1.360e-4
1.101,   1.284e-4
1.102,   1.211e-4
1.103,   1.148e-4
1.104,   1.091e-4
1.105,   1.039e-4
1.106,   9.947e-5
1.107,   9.536e-5
1.108,   9.166e-5
1.109,   8.839e-5
1.110,   8.526e-5
1.111,   8.255e-5
1.112,   8.002e-5
1.113,   7.772e-5
1.114,   7.564e-5
1.115,   7.350e-5
1.116,   7.176e-5
1.117,   7.015e-5
1.118,   6.842e-5
1.119,   6.721e-5
1.120,   6.586e-5
1.121,   6.449e-5
1.122,   6.339e-5
1.123,   6.218e-5
1.124,   6.120e-5
1.125,   6.032e-5
1.126,   5.937e-5
1.127,   5.855e-5
1.128,   5.773e-5
1.129,   5.696e-5
1.130,   5.640e-5
1.131,   5.566e-5
1.132,   5.517e-5
1.133,   5.460e-5
1.134,   5.391e-5
1.135,   5.354e-5
1.136,   5.307e-5
1.137,   5.246e-5
1.138,   5.219e-5
1.139,   5.170e-5
1.140,   5.134e-5
1.141,   5.107e-5
1.142,   5.064e-5
1.143,   5.040e-5
1.144,   5.005e-5
1.145,   4.991e-5
1.146,   4.965e-5
1.147,   4.925e-5
1.148,   4.907e-5
1.149,   4.899e-5
1.150,   4.865e-5
1.151,   4.858e-5
1.152,   4.839e-5
1.153,   4.815e-5
1.154,   4.818e-5
1.155,   4.795e-5
1.156,   4.780e-5
1.157,   4.776e-5
1.158,   4.764e-5
1.159,   4.754e-5
1.160,   4.750e-5
1.161,   4.736e-5
1.162,   4.735e-5
1.163,   4.721e-5
1.164,   4.727e-5
1.165,   4.731e-5
1.166,   4.705e-5
1.167,   4.719e-5
1.168,   4.716e-5
1.169,   4.706e-5
1.170,   4.719e-5
1.171,   4.714e-5
1.172,   4.715e-5
1.173,   4.723e-5
1.174,   4.714e-5
1.175,   4.722e-5
1.176,   4.720e-5
1.177,   4.722e-5
1.178,   4.731e-5
1.179,   4.728e-5
1.180,   4.727e-5
1.181,   4.742e-5
1.182,   4.736e-5
1.183,   4.756e-5
1.184,   4.762e-5
1.185,   4.757e-5
1.186,   4.769e-5
1.187,   4.766e-5
1.188,   4.771e-5
1.189,   4.786e-5
1.190,   4.785e-5
1.191,   4.799e-5
1.192,   4.796e-5
1.193,   4.796e-5
1.194,   4.813e-5
1.195,   4.802e-5
1.196,   4.818e-5
1.197,   4.837e-5
1.198,   4.824e-5
1.199,   4.840e-5
1.200,   4.841e-5
1.201,   4.833e-5
1.202,   4.851e-5
1.203,   4.847e-5
1.204,   4.849e-5
1.205,   4.864e-5
1.206,   4.852e-5
1.207,   4.863e-5
1.208,   4.865e-5
1.209,   4.880e-5
1.210,   4.877e-5
1.211,   4.866e-5
1.212,   4.872e-5
1.213,   4.878e-5
1.214,   4.865e-5
1.215,   4.879e-5
1.216,   4.880e-5
1.217,   4.872e-5
1.218,   4.884e-5
1.219,   4.868e-5
1.220,   4.872e-5
1.221,   4.878e-5
1.222,   4.868e-5
1.223,   4.878e-5
1.224,   4.867e-5
1.225,   4.861e-5
1.226,   4.871e-5
1.227,   4.849e-5
1.228,   4.860e-5
1.229,   4.866e-5
1.230,   4.845e-5
1.231,   4.858e-5
1.232,   4.847e-5
1.233,   4.836e-5
1.234,   4.850e-5
1.235,   4.839e-5
1.236,   4.827e-5
1.237,   4.831e-5
1.238,   4.817e-5
1.239,   4.814e-5
1.240,   4.801e-5
1.241,   4.810e-5
1.242,   4.814e-5
1.243,   4.787e-5
1.244,   4.789e-5
1.245,   4.791e-5
1.246,   4.765e-5
1.247,   4.782e-5
1.248,   4.780e-5
1.249,   4.752e-5
1.250,   4.766e-5
1.251,   4.746e-5
1.252,   4.740e-5
1.253,   4.749e-5
1.254,   4.731e-5
1.255,   4.736e-5
1.256,   4.723e-5
1.257,   4.712e-5
1.258,   4.717e-5
1.259,   4.698e-5
1.260,   4.704e-5
1.261,   4.717e-5
1.262,   4.679e-5
1.263,   4.688e-5
1.264,   4.678e-5
1.265,   4.671e-5
1.266,   4.674e-5
1.267,   4.662e-5
1.268,   4.650e-5
1.269,   4.662e-5
1.270,   4.639e-5
1.271,   4.642e-5
1.272,   4.636e-5
1.273,   4.634e-5
1.274,   4.639e-5
1.275,   4.614e-5
1.276,   4.609e-5
1.277,   4.622e-5
1.278,   4.596e-5
1.279,   4.607e-5
1.280,   4.609e-5
1.281,   4.589e-5
1.282,   4.601e-5
1.283,   4.582e-5
1.284,   4.584e-5
1.285,   4.584e-5
1.286,   4.582e-5
1.287,   4.584e-5
1.288,   4.576e-5
1.289,   4.566e-5
1.290,   4.573e-5
1.291,   4.557e-5
1.292,   4.572e-5
1.293,   4.582e-5
1.294,   4.552e-5
1.295,   4.571e-5
1.296,   4.568e-5
1.297,   4.554e-5
1.298,   4.576e-5
1.299,   4.568e-5
1.300,   4.561e-5
1.301,   4.575e-5
1.302,   4.568e-5
1.303,   4.576e-5
1.304,   4.572e-5
1.305,   4.576e-5
1.306,   4.589e-5
1.307,   4.567e-5
1.308,   4.579e-5
1.309,   4.592e-5
1.310,   4.579e-5
1.311,   4.605e-5
1.312,   4.611e-5
1.313,   4.592e-5
1.314,   4.616e-5
1.315,   4.615e-5
1.316,   4.616e-5
1.317,   4.635e-5
1.318,   4.623e-5
1.319,   4.644e-5
1.320,   4.652e-5
1.321,   4.635e-5
1.322,   4.658e-5
1.323,   4.653e-5
1.324,   4.691e-5
1.325,   4.702e-5
1.326,   4.677e-5
1.327,   4.702e-5
1.328,   4.703e-5
1.329,   4.702e-5
1.330,   4.732e-5
1.331,   4.732e-5
1.332,   4.728e-5
1.333,   4.754e-5
1.334,   4.745e-5
1.335,   4.763e-5
1.336,   4.774e-5
1.337,   4.781e-5
1.338,   4.805e-5
1.339,   4.794e-5
1.340,   4.810e-5
1.341,   4.829e-5
1.342,   4.824e-5
1.343,   4.850e-5
1.344,   4.863e-5
1.345,   4.857e-5
1.346,   4.887e-5
1.347,   4.885e-5
1.348,   4.902e-5
1.349,   4.920e-5
1.350,   4.932e-5
1.351,   4.948e-5
1.352,   4.957e-5
1.353,   4.966e-5
1.354,   4.990e-5
1.355,   4.992e-5
1.356,   5.013e-5
1.357,   5.043e-5
1.358,   5.039e-5
1.359,   5.067e-5
1.360,   5.080e-5
1.361,   5.086e-5
1.362,   5.133e-5
1.363,   5.143e-5
1.364,   5.160e-5
1.365,   5.196e-5
1.366,   5.188e-5
1.367,   5.233e-5
1.368,   5.255e-5
1.369,   5.280e-5
1.370,   5.322e-5
1.371,   5.331e-5
1.372,   5.372e-5
1.373,   5.414e-5
1.374,   5.430e-5
1.375,   5.481e-5
1.376,   5.530e-5
1.377,   5.545e-5
1.378,   5.617e-5
1.379,   5.632e-5
1.380,   5.687e-5
1.381,   5.748e-5
1.382,   5.801e-5
1.383,   5.861e-5
1.384,   5.923e-5
1.385,   5.978e-5
1.386,   6.077e-5
1.387,   6.128e-5
1.388,   6.228e-5
1.389,   6.325e-5
1.390,   6.382e-5
1.391,   6.504e-5
1.392,   6.603e-5
1.393,   6.718e-5
1.394,   6.852e-5
1.395,   6.968e-5
1.396,   7.102e-5
1.397,   7.259e-5
1.398,   7.397e-5
1.399,   7.575e-5
1.400,   7.754e-5
1.401,   7.960e-5
1.402,   8.167e-5
1.403,   8.362e-5
1.404,   8.597e-5
1.405,   8.866e-5
1.406,   9.086e-5
1.407,   9.389e-5
1.408,   9.685e-5
1.409,   9.977e-5
1.410,   1.034e-4
1.411,   1.068e-4
1.412,   1.107e-4
1.413,   1.149e-4
1.414,   1.192e-4
1.415,   1.239e-4
1.416,   1.288e-4
1.417,   1.340e-4
1.418,   1.396e-4
1.419,   1.454e-4
1.420,   1.519e-4
1.421,   1.589e-4
1.422,   1.658e-4
1.423,   1.737e-4
1.424,   1.817e-4
1.425,   1.903e-4
1.426,   1.997e-4
1.427,   2.094e-4
1.428,   2.198e-4
1.429,   2.311e-4
1.430,   2.428e-4
1.431,   2.556e-4
1.432,   2.690e-4
1.433,   2.833e-4
1.434,   2.987e-4
1.435,   3.147e-4
1.436,   3.321e-4
1.437,   3.506e-4
1.438,   3.696e-4
1.439,   3.908e-4
1.440,   4.130e-4
1.441,   4.362e-4
1.442,   4.614e-4
1.443,   4.877e-4
1.444,   5.157e-4
1.445,   5.457e-4
1.446,   5.772e-4
1.447,   6.108e-4
1.448,   6.461e-4
1.449,   6.834e-4
1.450,   7.235e-4
1.451,   7.648e-4
1.452,   8.097e-4
1.453,   8.564e-4
1.454,   9.052e-4
1.455,   9.572e-4
1.456,   1.011e-3
1.457,   1.068e-3
1.458,   1.127e-3
1.459,   1.190e-3
1.460,   1.256e-3
1.461,   1.325e-3
1.462,   1.396e-3
1.463,   1.471e-3
1.464,   1.549e-3
1.465,   1.630e-3
1.466,   1.716e-3
1.467,   1.810e-3
1.468,   1.902e-3
1.469,   1.997e-3
1.470,   2.095e-3
1.471,   2.197e-3
1.472,   2.303e-3
1.473,   2.415e-3
1.474,   2.525e-3
1.475,   2.637e-3
1.476,   2.768e-3
1.477,   2.892e-3
1.478,   3.012e-3
1.479,   3.137e-3
1.480,   3.257e-3
1.481,   3.381e-3
1.482,   3.509e-3
1.483,   3.653e-3
1.484,   3.782e-3
1.485,   3.895e-3
1.486,   4.016e-3
1.487,   4.188e-3
1.488,   4.338e-3
1.489,   4.469e-3
1.490,   4.609e-3
1.491,   5.057e-3
1.492,   5.484e-3
1.493,   5.599e-3
1.494,   5.724e-3
1.495,   6.007e-3
1.496,   6.222e-3
1.497,   6.312e-3
1.498,   6.453e-3
1.499,   6.677e-3
1.500,   6.775e-3
1.501,   7.010e-3
1.502,   7.124e-3
1.503,   7.173e-3
1.504,   7.311e-3
1.505,   8.147e-3
1.506,   8.793e-3
1.507,   8.701e-3
1.508,   8.625e-3
1.509,   8.605e-3
1.510,   8.579e-3
1.511,   8.823e-3
1.512,   8.832e-3
1.513,   8.938e-3
1.514,   9.582e-3
1.515,   9.569e-3
1.516,   9.602e-3
1.517,   1.006e-2
1.518,   1.006e-2
1.519,   1.006e-2
1.520,   1.006e-2
1.521,   1.006e-2
1.522,   1.006e-2
1.523,   1.006e-2
1.524,   1.006e-2
1.525,   1.006e-2
1.526,   1.006e-2
1.527,   1.006e-2