File: Experimental Records and Raw Data/batch3/final500/B3_BEST_500_#2_High_Quality(#15)-221mV.txt
Feb. 24, 2023   14:34:06
Linear Sweep Voltammetry
File: d:\current work\al_oer\electrochemical test data\batch 3\500\B3_BEST_500_#2_High_Quality(#15)-221mV.txt
Data Source:  Experiment
Instrument Model:  CHI660E
Header:
Note:

Init E (V) = 1.101

Final E (V) = 1.495

Scan Rate (V/s) = 0.010
Sample Interval (V) = 0.001
Quiet Time (sec) = 2
Sensitivity (A/V) = 0.001
Comp R (ohm) = 4.8

Results:

Channel 1:

Potential/V, Current/A
1.101,   9.503e-5
1.102,   1.017e-4
1.103,   9.691e-5
1.104,   9.177e-5
1.105,   8.758e-5
1.106,   8.367e-5
1.107,   8.022e-5
1.108,   7.738e-5
1.109,   7.456e-5
1.110,   7.226e-5
1.111,   7.011e-5
1.112,   6.813e-5
1.113,   6.663e-5
1.114,   6.508e-5
1.115,   6.366e-5
1.116,   6.261e-5
1.117,   6.124e-5
1.118,   6.020e-5
1.119,   5.938e-5
1.120,   5.834e-5
1.121,   5.778e-5
1.122,   5.707e-5
1.123,   5.626e-5
1.124,   5.577e-5
1.125,   5.506e-5
1.126,   5.471e-5
1.127,   5.422e-5
1.128,   5.373e-5
1.129,   5.350e-5
1.130,   5.307e-5
1.131,   5.274e-5
1.132,   5.258e-5
1.133,   5.222e-5
1.134,   5.214e-5
1.135,   5.197e-5
1.136,   5.158e-5
1.137,   5.158e-5
1.138,   5.146e-5
1.139,   5.124e-5
1.140,   5.128e-5
1.141,   5.103e-5
1.142,   5.102e-5
1.143,   5.112e-5
1.144,   5.086e-5
1.145,   5.101e-5
1.146,   5.086e-5
1.147,   5.093e-5
1.148,   5.109e-5
1.149,   5.087e-5
1.150,   5.093e-5
1.151,   5.103e-5
1.152,   5.105e-5
1.153,   5.115e-5
1.154,   5.120e-5
1.155,   5.121e-5
1.156,   5.143e-5
1.157,   5.132e-5
1.158,   5.147e-5
1.159,   5.168e-5
1.160,   5.166e-5
1.161,   5.195e-5
1.162,   5.202e-5
1.163,   5.197e-5
1.164,   5.226e-5
1.165,   5.229e-5
1.166,   5.250e-5
1.167,   5.278e-5
1.168,   5.269e-5
1.169,   5.300e-5
1.170,   5.312e-5
1.171,   5.321e-5
1.172,   5.361e-5
1.173,   5.366e-5
1.174,   5.394e-5
1.175,   5.408e-5
1.176,   5.397e-5
1.177,   5.442e-5
1.178,   5.450e-5
1.179,   5.468e-5
1.180,   5.510e-5
1.181,   5.497e-5
1.182,   5.533e-5
1.183,   5.567e-5
1.184,   5.559e-5
1.185,   5.607e-5
1.186,   5.630e-5
1.187,   5.630e-5
1.188,   5.667e-5
1.189,   5.653e-5
1.190,   5.690e-5
1.191,   5.723e-5
1.192,   5.721e-5
1.193,   5.757e-5
1.194,   5.772e-5
1.195,   5.781e-5
1.196,   5.822e-5
1.197,   5.815e-5
1.198,   5.851e-5
1.199,   5.883e-5
1.200,   5.871e-5
1.201,   5.909e-5
1.202,   5.927e-5
1.203,   5.930e-5
1.204,   5.975e-5
1.205,   5.963e-5
1.206,   5.983e-5
1.207,   6.021e-5
1.208,   5.996e-5
1.209,   6.039e-5
1.210,   6.044e-5
1.211,   6.069e-5
1.212,   6.094e-5
1.213,   6.079e-5
1.214,   6.107e-5
1.215,   6.136e-5
1.216,   6.121e-5
1.217,   6.155e-5
1.218,   6.166e-5
1.219,   6.160e-5
1.220,   6.197e-5
1.221,   6.175e-5
1.222,   6.199e-5
1.223,   6.227e-5
1.224,   6.246e-5
1.225,   6.241e-5
1.226,   6.241e-5
1.227,   6.234e-5
1.228,   6.273e-5
1.229,   6.247e-5
1.230,   6.268e-5
1.231,   6.287e-5
1.232,   6.264e-5
1.233,   6.284e-5
1.234,   6.296e-5
1.235,   6.277e-5
1.236,   6.308e-5
1.237,   6.296e-5
1.238,   6.297e-5
1.239,   6.319e-5
1.240,   6.296e-5
1.241,   6.314e-5
1.242,   6.316e-5
1.243,   6.317e-5
1.244,   6.337e-5
1.245,   6.310e-5
1.246,   6.319e-5
1.247,   6.334e-5
1.248,   6.306e-5
1.249,   6.338e-5
1.250,   6.337e-5
1.251,   6.306e-5
1.252,   6.333e-5
1.253,   6.307e-5
1.254,   6.318e-5
1.255,   6.336e-5
1.256,   6.303e-5
1.257,   6.337e-5
1.258,   6.323e-5
1.259,   6.295e-5
1.260,   6.340e-5
1.261,   6.300e-5
1.262,   6.323e-5
1.263,   6.327e-5
1.264,   6.296e-5
1.265,   6.314e-5
1.266,   6.306e-5
1.267,   6.290e-5
1.268,   6.319e-5
1.269,   6.289e-5
1.270,   6.298e-5
1.271,   6.317e-5
1.272,   6.275e-5
1.273,   6.295e-5
1.274,   6.290e-5
1.275,   6.286e-5
1.276,   6.313e-5
1.277,   6.273e-5
1.278,   6.270e-5
1.279,   6.292e-5
1.280,   6.259e-5
1.281,   6.286e-5
1.282,   6.277e-5
1.283,   6.264e-5
1.284,   6.288e-5
1.285,   6.259e-5
1.286,   6.291e-5
1.287,   6.302e-5
1.288,   6.269e-5
1.289,   6.286e-5
1.290,   6.272e-5
1.291,   6.252e-5
1.292,   6.263e-5
1.293,   6.245e-5
1.294,   6.268e-5
1.295,   6.274e-5
1.296,   6.237e-5
1.297,   6.255e-5
1.298,   6.258e-5
1.299,   6.252e-5
1.300,   6.266e-5
1.301,   6.259e-5
1.302,   6.247e-5
1.303,   6.271e-5
1.304,   6.243e-5
1.305,   6.265e-5
1.306,   6.254e-5
1.307,   6.252e-5
1.308,   6.272e-5
1.309,   6.249e-5
1.310,   6.264e-5
1.311,   6.280e-5
1.312,   6.258e-5
1.313,   6.275e-5
1.314,   6.281e-5
1.315,   6.274e-5
1.316,   6.292e-5
1.317,   6.270e-5
1.318,   6.282e-5
1.319,   6.312e-5
1.320,   6.289e-5
1.321,   6.313e-5
1.322,   6.304e-5
1.323,   6.306e-5
1.324,   6.335e-5
1.325,   6.307e-5
1.326,   6.343e-5
1.327,   6.366e-5
1.328,   6.337e-5
1.329,   6.358e-5
1.330,   6.364e-5
1.331,   6.356e-5
1.332,   6.393e-5
1.333,   6.380e-5
1.334,   6.388e-5
1.335,   6.418e-5
1.336,   6.405e-5
1.337,   6.446e-5
1.338,   6.445e-5
1.339,   6.450e-5
1.340,   6.478e-5
1.341,   6.463e-5
1.342,   6.492e-5
1.343,   6.522e-5
1.344,   6.500e-5
1.345,   6.548e-5
1.346,   6.558e-5
1.347,   6.565e-5
1.348,   6.611e-5
1.349,   6.602e-5
1.350,   6.635e-5
1.351,   6.667e-5
1.352,   6.678e-5
1.353,   6.724e-5
1.354,   6.733e-5
1.355,   6.747e-5
1.356,   6.805e-5
1.357,   6.813e-5
1.358,   6.862e-5
1.359,   6.901e-5
1.360,   6.918e-5
1.361,   6.964e-5
1.362,   6.998e-5
1.363,   7.037e-5
1.364,   7.108e-5
1.365,   7.130e-5
1.366,   7.182e-5
1.367,   7.249e-5
1.368,   7.283e-5
1.369,   7.381e-5
1.370,   7.431e-5
1.371,   7.509e-5
1.372,   7.607e-5
1.373,   7.658e-5
1.374,   7.759e-5
1.375,   7.862e-5
1.376,   7.939e-5
1.377,   8.080e-5
1.378,   8.195e-5
1.379,   8.301e-5
1.380,   8.476e-5
1.381,   8.584e-5
1.382,   8.759e-5
1.383,   8.948e-5
1.384,   9.101e-5
1.385,   9.317e-5
1.386,   9.531e-5
1.387,   9.743e-5
1.388,   1.001e-4
1.389,   1.026e-4
1.390,   1.056e-4
1.391,   1.088e-4
1.392,   1.117e-4
1.393,   1.156e-4
1.394,   1.194e-4
1.395,   1.234e-4
1.396,   1.282e-4
1.397,   1.326e-4
1.398,   1.377e-4
1.399,   1.434e-4
1.400,   1.489e-4
1.401,   1.554e-4
1.402,   1.621e-4
1.403,   1.694e-4
1.404,   1.771e-4
1.405,   1.849e-4
1.406,   1.936e-4
1.407,   2.031e-4
1.408,   2.126e-4
1.409,   2.234e-4
1.410,   2.344e-4
1.411,   2.463e-4
1.412,   2.591e-4
1.413,   2.721e-4
1.414,   2.864e-4
1.415,   3.014e-4
1.416,   3.171e-4
1.417,   3.340e-4
1.418,   3.513e-4
1.419,   3.700e-4
1.420,   3.898e-4
1.421,   4.099e-4
1.422,   4.320e-4
1.423,   4.552e-4
1.424,   4.789e-4
1.425,   5.046e-4
1.426,   5.313e-4
1.427,   5.593e-4
1.428,   5.894e-4
1.429,   6.212e-4
1.430,   6.538e-4
1.431,   6.881e-4
1.432,   7.239e-4
1.433,   7.627e-4
1.434,   8.020e-4
1.435,   8.436e-4
1.436,   8.888e-4
1.437,   9.350e-4
1.438,   9.830e-4
1.439,   1.034e-3
1.440,   1.087e-3
1.441,   1.143e-3
1.442,   1.202e-3
1.443,   1.263e-3
1.444,   1.328e-3
1.445,   1.395e-3
1.446,   1.466e-3
1.447,   1.540e-3
1.448,   1.616e-3
1.449,   1.698e-3
1.450,   1.782e-3
1.451,   1.870e-3
1.452,   1.963e-3
1.453,   2.059e-3
1.454,   2.159e-3
1.455,   2.265e-3
1.456,   2.374e-3
1.457,   2.488e-3
1.458,   2.606e-3
1.459,   2.729e-3
1.460,   2.858e-3
1.461,   2.991e-3
1.462,   3.130e-3
1.463,   3.274e-3
1.464,   3.425e-3
1.465,   3.582e-3
1.466,   3.741e-3
1.467,   3.909e-3
1.468,   4.084e-3
1.469,   4.262e-3
1.470,   4.448e-3
1.471,   4.639e-3
1.472,   4.837e-3
1.473,   5.042e-3
1.474,   5.252e-3
1.475,   5.471e-3
1.476,   5.697e-3
1.477,   5.926e-3
1.478,   6.161e-3
1.479,   6.402e-3
1.480,   6.653e-3
1.481,   6.911e-3
1.482,   7.175e-3
1.483,   7.445e-3
1.484,   7.720e-3
1.485,   7.995e-3
1.486,   8.284e-3
1.487,   8.574e-3
1.488,   8.866e-3
1.489,   9.169e-3
1.490,   9.476e-3
1.491,   9.801e-3
1.492,   1.005e-2
1.493,   1.007e-2
1.494,   1.007e-2
1.495,   1.007e-2