File: Experimental Records and Raw Data/batch3/final500/B3_BEST_500_#8_High_Quality(#21)-216mV.txt
Feb. 24, 2023   13:27:47
Linear Sweep Voltammetry
File: d:\current work\al_oer\electrochemical test data\batch 3\500\B3_BEST_500_#8_High_Quality(#21)-216mV.txt
Data Source:  Experiment
Instrument Model:  CHI660E
Header:
Note:

Init E (V) = 1.098

Final E (V) = 1.502

Scan Rate (V/s) = 0.010
Sample Interval (V) = 0.001
Quiet Time (sec) = 2
Sensitivity (A/V) = 0.001
Comp R (ohm) = 4.6

Results:

Channel 1:

Potential/V, Current/A
1.098,   1.094e-4
1.099,   1.240e-4
1.100,   1.186e-4
1.101,   1.129e-4
1.102,   1.082e-4
1.103,   1.041e-4
1.104,   1.002e-4
1.105,   9.733e-5
1.106,   9.420e-5
1.107,   9.174e-5
1.108,   8.960e-5
1.109,   8.739e-5
1.110,   8.565e-5
1.111,   8.401e-5
1.112,   8.239e-5
1.113,   8.139e-5
1.114,   7.971e-5
1.115,   7.874e-5
1.116,   7.790e-5
1.117,   7.661e-5
1.118,   7.612e-5
1.119,   7.527e-5
1.120,   7.427e-5
1.121,   7.390e-5
1.122,   7.297e-5
1.123,   7.248e-5
1.124,   7.215e-5
1.125,   7.131e-5
1.126,   7.094e-5
1.127,   7.050e-5
1.128,   7.005e-5
1.129,   6.990e-5
1.130,   6.927e-5
1.131,   6.908e-5
1.132,   6.893e-5
1.133,   6.839e-5
1.134,   6.840e-5
1.135,   6.807e-5
1.136,   6.772e-5
1.137,   6.781e-5
1.138,   6.740e-5
1.139,   6.719e-5
1.140,   6.721e-5
1.141,   6.675e-5
1.142,   6.697e-5
1.143,   6.677e-5
1.144,   6.656e-5
1.145,   6.676e-5
1.146,   6.624e-5
1.147,   6.619e-5
1.148,   6.642e-5
1.149,   6.600e-5
1.150,   6.619e-5
1.151,   6.609e-5
1.152,   6.594e-5
1.153,   6.616e-5
1.154,   6.583e-5
1.155,   6.584e-5
1.156,   6.590e-5
1.157,   6.576e-5
1.158,   6.590e-5
1.159,   6.569e-5
1.160,   6.564e-5
1.161,   6.605e-5
1.162,   6.568e-5
1.163,   6.580e-5
1.164,   6.604e-5
1.165,   6.571e-5
1.166,   6.586e-5
1.167,   6.592e-5
1.168,   6.576e-5
1.169,   6.612e-5
1.170,   6.606e-5
1.171,   6.600e-5
1.172,   6.615e-5
1.173,   6.584e-5
1.174,   6.603e-5
1.175,   6.617e-5
1.176,   6.620e-5
1.177,   6.642e-5
1.178,   6.620e-5
1.179,   6.790e-5
1.180,   6.683e-5
1.181,   6.637e-5
1.182,   6.675e-5
1.183,   6.667e-5
1.184,   6.651e-5
1.185,   6.697e-5
1.186,   6.669e-5
1.187,   6.678e-5
1.188,   6.709e-5
1.189,   6.698e-5
1.190,   6.723e-5
1.191,   6.710e-5
1.192,   6.711e-5
1.193,   6.749e-5
1.194,   6.718e-5
1.195,   6.738e-5
1.196,   6.771e-5
1.197,   6.745e-5
1.198,   6.783e-5
1.199,   6.764e-5
1.200,   6.773e-5
1.201,   6.808e-5
1.202,   6.782e-5
1.203,   6.795e-5
1.204,   6.833e-5
1.205,   6.808e-5
1.206,   6.839e-5
1.207,   6.823e-5
1.208,   6.837e-5
1.209,   6.864e-5
1.210,   6.830e-5
1.211,   6.845e-5
1.212,   6.881e-5
1.213,   6.849e-5
1.214,   6.894e-5
1.215,   6.887e-5
1.216,   6.871e-5
1.217,   6.909e-5
1.218,   6.869e-5
1.219,   6.896e-5
1.220,   6.925e-5
1.221,   6.934e-5
1.222,   6.913e-5
1.223,   6.915e-5
1.224,   6.918e-5
1.225,   6.958e-5
1.226,   6.916e-5
1.227,   6.928e-5
1.228,   6.965e-5
1.229,   6.925e-5
1.230,   6.957e-5
1.231,   6.959e-5
1.232,   6.929e-5
1.233,   6.976e-5
1.234,   6.962e-5
1.235,   6.960e-5
1.236,   6.979e-5
1.237,   6.958e-5
1.238,   6.977e-5
1.239,   6.971e-5
1.240,   6.972e-5
1.241,   6.995e-5
1.242,   6.959e-5
1.243,   6.980e-5
1.244,   7.003e-5
1.245,   6.960e-5
1.246,   7.007e-5
1.247,   7.003e-5
1.248,   6.979e-5
1.249,   7.016e-5
1.250,   6.972e-5
1.251,   6.991e-5
1.252,   7.007e-5
1.253,   6.987e-5
1.254,   7.010e-5
1.255,   7.002e-5
1.256,   6.984e-5
1.257,   7.016e-5
1.258,   6.980e-5
1.259,   7.009e-5
1.260,   7.029e-5
1.261,   6.982e-5
1.262,   7.021e-5
1.263,   7.015e-5
1.264,   7.006e-5
1.265,   7.039e-5
1.266,   7.006e-5
1.267,   7.002e-5
1.268,   7.028e-5
1.269,   6.989e-5
1.270,   7.014e-5
1.271,   7.006e-5
1.272,   7.023e-5
1.273,   7.036e-5
1.274,   7.006e-5
1.275,   7.010e-5
1.276,   7.038e-5
1.277,   7.004e-5
1.278,   7.034e-5
1.279,   7.023e-5
1.280,   7.004e-5
1.281,   7.043e-5
1.282,   7.005e-5
1.283,   7.024e-5
1.284,   7.046e-5
1.285,   7.027e-5
1.286,   7.044e-5
1.287,   7.042e-5
1.288,   7.025e-5
1.289,   7.049e-5
1.290,   7.023e-5
1.291,   7.041e-5
1.292,   7.072e-5
1.293,   7.033e-5
1.294,   7.068e-5
1.295,   7.062e-5
1.296,   7.050e-5
1.297,   7.083e-5
1.298,   7.064e-5
1.299,   7.072e-5
1.300,   7.096e-5
1.301,   7.064e-5
1.302,   7.096e-5
1.303,   7.097e-5
1.304,   7.089e-5
1.305,   7.130e-5
1.306,   7.089e-5
1.307,   7.105e-5
1.308,   7.141e-5
1.309,   7.109e-5
1.310,   7.165e-5
1.311,   7.148e-5
1.312,   7.140e-5
1.313,   7.200e-5
1.314,   7.166e-5
1.315,   7.173e-5
1.316,   7.205e-5
1.317,   7.187e-5
1.318,   7.209e-5
1.319,   7.209e-5
1.320,   7.220e-5
1.321,   7.260e-5
1.322,   7.240e-5
1.323,   7.274e-5
1.324,   7.298e-5
1.325,   7.272e-5
1.326,   7.306e-5
1.327,   7.305e-5
1.328,   7.316e-5
1.329,   7.363e-5
1.330,   7.348e-5
1.331,   7.362e-5
1.332,   7.394e-5
1.333,   7.377e-5
1.334,   7.432e-5
1.335,   7.437e-5
1.336,   7.434e-5
1.337,   7.499e-5
1.338,   7.469e-5
1.339,   7.504e-5
1.340,   7.542e-5
1.341,   7.523e-5
1.342,   7.589e-5
1.343,   7.605e-5
1.344,   7.609e-5
1.345,   7.665e-5
1.346,   7.644e-5
1.347,   7.693e-5
1.348,   7.746e-5
1.349,   7.743e-5
1.350,   7.796e-5
1.351,   7.821e-5
1.352,   7.833e-5
1.353,   7.907e-5
1.354,   7.900e-5
1.355,   7.962e-5
1.356,   8.027e-5
1.357,   8.026e-5
1.358,   8.109e-5
1.359,   8.130e-5
1.360,   8.172e-5
1.361,   8.265e-5
1.362,   8.283e-5
1.363,   8.344e-5
1.364,   8.445e-5
1.365,   8.466e-5
1.366,   8.562e-5
1.367,   8.627e-5
1.368,   8.703e-5
1.369,   8.821e-5
1.370,   8.859e-5
1.371,   8.988e-5
1.372,   9.108e-5
1.373,   9.170e-5
1.374,   9.341e-5
1.375,   9.454e-5
1.376,   9.563e-5
1.377,   9.747e-5
1.378,   9.844e-5
1.379,   1.005e-4
1.380,   1.023e-4
1.381,   1.038e-4
1.382,   1.061e-4
1.383,   1.081e-4
1.384,   1.103e-4
1.385,   1.133e-4
1.386,   1.153e-4
1.387,   1.186e-4
1.388,   1.217e-4
1.389,   1.244e-4
1.390,   1.283e-4
1.391,   1.319e-4
1.392,   1.355e-4
1.393,   1.403e-4
1.394,   1.445e-4
1.395,   1.494e-4
1.396,   1.547e-4
1.397,   1.599e-4
1.398,   1.662e-4
1.399,   1.724e-4
1.400,   1.794e-4
1.401,   1.868e-4
1.402,   1.939e-4
1.403,   2.025e-4
1.404,   2.115e-4
1.405,   2.205e-4
1.406,   2.310e-4
1.407,   2.418e-4
1.408,   2.530e-4
1.409,   2.657e-4
1.410,   2.782e-4
1.411,   2.922e-4
1.412,   3.071e-4
1.413,   3.226e-4
1.414,   3.398e-4
1.415,   3.572e-4
1.416,   3.760e-4
1.417,   3.968e-4
1.418,   4.176e-4
1.419,   4.406e-4
1.420,   4.651e-4
1.421,   4.901e-4
1.422,   5.175e-4
1.423,   5.464e-4
1.424,   5.776e-4
1.425,   6.099e-4
1.426,   6.446e-4
1.427,   6.806e-4
1.428,   7.193e-4
1.429,   7.595e-4
1.430,   8.026e-4
1.431,   8.477e-4
1.432,   8.963e-4
1.433,   9.465e-4
1.434,   9.987e-4
1.435,   1.054e-3
1.436,   1.113e-3
1.437,   1.174e-3
1.438,   1.239e-3
1.439,   1.306e-3
1.440,   1.377e-3
1.441,   1.451e-3
1.442,   1.530e-3
1.443,   1.612e-3
1.444,   1.695e-3
1.445,   1.782e-3
1.446,   1.873e-3
1.447,   1.966e-3
1.448,   2.065e-3
1.449,   2.166e-3
1.450,   2.271e-3
1.451,   2.385e-3
1.452,   2.497e-3
1.453,   2.610e-3
1.454,   2.730e-3
1.455,   2.848e-3
1.456,   2.982e-3
1.457,   3.121e-3
1.458,   3.256e-3
1.459,   3.395e-3
1.460,   3.542e-3
1.461,   3.717e-3
1.462,   3.874e-3
1.463,   4.022e-3
1.464,   4.186e-3
1.465,   4.341e-3
1.466,   4.486e-3
1.467,   4.631e-3
1.468,   4.811e-3
1.469,   4.975e-3
1.470,   5.130e-3
1.471,   5.302e-3
1.472,   5.488e-3
1.473,   5.696e-3
1.474,   5.900e-3
1.475,   6.247e-3
1.476,   6.404e-3
1.477,   6.540e-3
1.478,   6.722e-3
1.479,   6.902e-3
1.480,   7.133e-3
1.481,   7.392e-3
1.482,   7.581e-3
1.483,   7.765e-3
1.484,   7.925e-3
1.485,   8.287e-3
1.486,   8.895e-3
1.487,   9.185e-3
1.488,   9.342e-3
1.489,   9.527e-3
1.490,   9.791e-3
1.491,   1.007e-2
1.492,   1.007e-2
1.493,   1.007e-2
1.494,   1.007e-2
1.495,   1.007e-2
1.496,   1.007e-2
1.497,   1.007e-2
1.498,   1.007e-2
1.499,   1.007e-2
1.500,   1.007e-2
1.501,   1.007e-2
1.502,   1.007e-2