File: Experimental Records and Raw Data/batch3/final500/B3_BEST_500_#6_High_Quality(#19)-186mV.txt
Feb. 24, 2023   13:42:29
Linear Sweep Voltammetry
File: d:\current work\al_oer\electrochemical test data\batch 3\500\B3_BEST_500_#6_High_Quality(#19)-186mV.txt
Data Source:  Experiment
Instrument Model:  CHI660E
Header:
Note:

Init E (V) = 1.099

Final E (V) = 1.459

Scan Rate (V/s) = 0.010
Sample Interval (V) = 0.001
Quiet Time (sec) = 2
Sensitivity (A/V) = 0.001
Comp R (ohm) = 4.8

Results:

Channel 1:

Potential/V, Current/A
1.099,   1.034e-4
1.100,   1.260e-4
1.101,   1.229e-4
1.102,   1.178e-4
1.103,   1.140e-4
1.104,   1.104e-4
1.105,   1.073e-4
1.106,   1.048e-4
1.107,   1.022e-4
1.108,   1.002e-4
1.109,   9.861e-5
1.110,   9.672e-5
1.111,   9.557e-5
1.112,   9.422e-5
1.113,   9.307e-5
1.114,   9.226e-5
1.115,   9.102e-5
1.116,   9.036e-5
1.117,   8.981e-5
1.118,   8.882e-5
1.119,   8.862e-5
1.120,   8.804e-5
1.121,   8.732e-5
1.122,   8.716e-5
1.123,   8.633e-5
1.124,   8.604e-5
1.125,   8.593e-5
1.126,   8.541e-5
1.127,   8.540e-5
1.128,   8.494e-5
1.129,   8.463e-5
1.130,   8.476e-5
1.131,   8.423e-5
1.132,   8.427e-5
1.133,   8.425e-5
1.134,   8.376e-5
1.135,   8.384e-5
1.136,   8.365e-5
1.137,   8.343e-5
1.138,   8.373e-5
1.139,   8.327e-5
1.140,   8.325e-5
1.141,   8.344e-5
1.142,   8.313e-5
1.143,   8.341e-5
1.144,   8.319e-5
1.145,   8.317e-5
1.146,   8.347e-5
1.147,   8.296e-5
1.148,   8.317e-5
1.149,   8.325e-5
1.150,   8.292e-5
1.151,   8.341e-5
1.152,   8.309e-5
1.153,   8.310e-5
1.154,   8.345e-5
1.155,   8.299e-5
1.156,   8.327e-5
1.157,   8.339e-5
1.158,   8.325e-5
1.159,   8.339e-5
1.160,   8.337e-5
1.161,   8.321e-5
1.162,   8.359e-5
1.163,   8.327e-5
1.164,   8.346e-5
1.165,   8.383e-5
1.166,   8.352e-5
1.167,   8.377e-5
1.168,   8.366e-5
1.169,   8.367e-5
1.170,   8.399e-5
1.171,   8.386e-5
1.172,   8.386e-5
1.173,   8.413e-5
1.174,   8.382e-5
1.175,   8.416e-5
1.176,   8.399e-5
1.177,   8.402e-5
1.178,   8.447e-5
1.179,   8.414e-5
1.180,   8.416e-5
1.181,   8.440e-5
1.182,   8.419e-5
1.183,   8.466e-5
1.184,   8.453e-5
1.185,   8.442e-5
1.186,   8.479e-5
1.187,   8.434e-5
1.188,   8.459e-5
1.189,   8.476e-5
1.190,   8.447e-5
1.191,   8.493e-5
1.192,   8.480e-5
1.193,   8.485e-5
1.194,   8.518e-5
1.195,   8.481e-5
1.196,   8.516e-5
1.197,   8.527e-5
1.198,   8.491e-5
1.199,   8.534e-5
1.200,   8.515e-5
1.201,   8.508e-5
1.202,   8.552e-5
1.203,   8.525e-5
1.204,   8.538e-5
1.205,   8.551e-5
1.206,   8.538e-5
1.207,   8.564e-5
1.208,   8.551e-5
1.209,   8.558e-5
1.210,   8.580e-5
1.211,   8.554e-5
1.212,   8.567e-5
1.213,   8.582e-5
1.214,   8.554e-5
1.215,   8.605e-5
1.216,   8.579e-5
1.217,   8.568e-5
1.218,   8.621e-5
1.219,   8.587e-5
1.220,   8.590e-5
1.221,   8.621e-5
1.222,   8.630e-5
1.223,   8.633e-5
1.224,   8.622e-5
1.225,   8.607e-5
1.226,   8.646e-5
1.227,   8.610e-5
1.228,   8.633e-5
1.229,   8.659e-5
1.230,   8.620e-5
1.231,   8.654e-5
1.232,   8.642e-5
1.233,   8.648e-5
1.234,   8.674e-5
1.235,   8.657e-5
1.236,   8.671e-5
1.237,   8.675e-5
1.238,   8.650e-5
1.239,   8.685e-5
1.240,   8.670e-5
1.241,   8.683e-5
1.242,   8.725e-5
1.243,   8.666e-5
1.244,   8.704e-5
1.245,   8.711e-5
1.246,   8.680e-5
1.247,   8.730e-5
1.248,   8.723e-5
1.249,   8.707e-5
1.250,   8.752e-5
1.251,   8.715e-5
1.252,   8.738e-5
1.253,   8.760e-5
1.254,   8.739e-5
1.255,   8.763e-5
1.256,   8.753e-5
1.257,   8.752e-5
1.258,   8.806e-5
1.259,   8.756e-5
1.260,   8.794e-5
1.261,   8.809e-5
1.262,   8.783e-5
1.263,   8.830e-5
1.264,   8.808e-5
1.265,   8.821e-5
1.266,   8.856e-5
1.267,   8.842e-5
1.268,   8.850e-5
1.269,   8.867e-5
1.270,   8.847e-5
1.271,   8.898e-5
1.272,   8.883e-5
1.273,   8.907e-5
1.274,   8.936e-5
1.275,   8.897e-5
1.276,   8.931e-5
1.277,   8.942e-5
1.278,   8.921e-5
1.279,   8.970e-5
1.280,   8.982e-5
1.281,   8.982e-5
1.282,   9.027e-5
1.283,   8.983e-5
1.284,   9.022e-5
1.285,   9.052e-5
1.286,   9.038e-5
1.287,   9.086e-5
1.288,   9.076e-5
1.289,   9.076e-5
1.290,   9.128e-5
1.291,   9.096e-5
1.292,   9.139e-5
1.293,   9.181e-5
1.294,   9.149e-5
1.295,   9.201e-5
1.296,   9.215e-5
1.297,   9.224e-5
1.298,   9.274e-5
1.299,   9.271e-5
1.300,   9.300e-5
1.301,   9.334e-5
1.302,   9.317e-5
1.303,   9.381e-5
1.304,   9.380e-5
1.305,   9.404e-5
1.306,   9.453e-5
1.307,   9.427e-5
1.308,   9.487e-5
1.309,   9.538e-5
1.310,   9.522e-5
1.311,   9.590e-5
1.312,   9.614e-5
1.313,   9.624e-5
1.314,   9.685e-5
1.315,   9.671e-5
1.316,   9.729e-5
1.317,   9.786e-5
1.318,   9.784e-5
1.319,   9.853e-5
1.320,   9.885e-5
1.321,   9.927e-5
1.322,   1.000e-4
1.323,   9.997e-5
1.324,   1.009e-4
1.325,   1.014e-4
1.326,   1.015e-4
1.327,   1.024e-4
1.328,   1.027e-4
1.329,   1.031e-4
1.330,   1.041e-4
1.331,   1.044e-4
1.332,   1.052e-4
1.333,   1.061e-4
1.334,   1.064e-4
1.335,   1.074e-4
1.336,   1.080e-4
1.337,   1.089e-4
1.338,   1.100e-4
1.339,   1.105e-4
1.340,   1.115e-4
1.341,   1.126e-4
1.342,   1.132e-4
1.343,   1.146e-4
1.344,   1.157e-4
1.345,   1.165e-4
1.346,   1.183e-4
1.347,   1.190e-4
1.348,   1.204e-4
1.349,   1.220e-4
1.350,   1.233e-4
1.351,   1.249e-4
1.352,   1.264e-4
1.353,   1.279e-4
1.354,   1.300e-4
1.355,   1.315e-4
1.356,   1.337e-4
1.357,   1.358e-4
1.358,   1.376e-4
1.359,   1.401e-4
1.360,   1.424e-4
1.361,   1.446e-4
1.362,   1.478e-4
1.363,   1.502e-4
1.364,   1.535e-4
1.365,   1.568e-4
1.366,   1.598e-4
1.367,   1.637e-4
1.368,   1.673e-4
1.369,   1.714e-4
1.370,   1.761e-4
1.371,   1.802e-4
1.372,   1.853e-4
1.373,   1.908e-4
1.374,   1.961e-4
1.375,   2.024e-4
1.376,   2.092e-4
1.377,   2.157e-4
1.378,   2.237e-4
1.379,   2.311e-4
1.380,   2.400e-4
1.381,   2.495e-4
1.382,   2.593e-4
1.383,   2.702e-4
1.384,   2.817e-4
1.385,   2.940e-4
1.386,   3.076e-4
1.387,   3.218e-4
1.388,   3.376e-4
1.389,   3.545e-4
1.390,   3.721e-4
1.391,   3.920e-4
1.392,   4.125e-4
1.393,   4.348e-4
1.394,   4.593e-4
1.395,   4.851e-4
1.396,   5.133e-4
1.397,   5.432e-4
1.398,   5.753e-4
1.399,   6.103e-4
1.400,   6.474e-4
1.401,   6.875e-4
1.402,   7.307e-4
1.403,   7.764e-4
1.404,   8.258e-4
1.405,   8.789e-4
1.406,   9.352e-4
1.407,   9.960e-4
1.408,   1.061e-3
1.409,   1.130e-3
1.410,   1.208e-3
1.411,   1.290e-3
1.412,   1.375e-3
1.413,   1.467e-3
1.414,   1.565e-3
1.415,   1.671e-3
1.416,   1.784e-3
1.417,   1.902e-3
1.418,   2.031e-3
1.419,   2.166e-3
1.420,   2.310e-3
1.421,   2.467e-3
1.422,   2.642e-3
1.423,   2.814e-3
1.424,   2.996e-3
1.425,   3.184e-3
1.426,   3.381e-3
1.427,   3.586e-3
1.428,   3.795e-3
1.429,   4.009e-3
1.430,   4.239e-3
1.431,   4.474e-3
1.432,   4.699e-3
1.433,   4.925e-3
1.434,   5.151e-3
1.435,   5.377e-3
1.436,   5.602e-3
1.437,   5.836e-3
1.438,   6.086e-3
1.439,   6.309e-3
1.440,   6.531e-3
1.441,   6.753e-3
1.442,   6.965e-3
1.443,   7.176e-3
1.444,   7.411e-3
1.445,   7.638e-3
1.446,   7.836e-3
1.447,   8.037e-3
1.448,   8.226e-3
1.449,   8.422e-3
1.450,   8.607e-3
1.451,   8.794e-3
1.452,   9.021e-3
1.453,   9.218e-3
1.454,   9.397e-3
1.455,   9.568e-3
1.456,   9.732e-3
1.457,   9.906e-3
1.458,   1.005e-2
1.459,   1.007e-2