File: Experimental Records and Raw Data/batch3/final500/B3_VARIANCE_500_#5_Full(#13)-219mV.txt
Feb. 24, 2023   13:35:07
Linear Sweep Voltammetry
File: d:\current work\al_oer\electrochemical test data\batch 3\500\B3_VARIANCE_500_#5_Full(#13)-219mV.txt
Data Source:  Experiment
Instrument Model:  CHI660E
Header:
Note:

Init E (V) = 1.098

Final E (V) = 1.518

Scan Rate (V/s) = 0.010
Sample Interval (V) = 0.001
Quiet Time (sec) = 2
Sensitivity (A/V) = 0.001
Comp R (ohm) = 4.8

Results:

Channel 1:

Potential/V, Current/A
1.098,   2.478e-4
1.099,   2.390e-4
1.100,   2.205e-4
1.101,   2.025e-4
1.102,   1.873e-4
1.103,   1.742e-4
1.104,   1.630e-4
1.105,   1.536e-4
1.106,   1.454e-4
1.107,   1.385e-4
1.108,   1.324e-4
1.109,   1.271e-4
1.110,   1.227e-4
1.111,   1.187e-4
1.112,   1.152e-4
1.113,   1.121e-4
1.114,   1.092e-4
1.115,   1.068e-4
1.116,   1.045e-4
1.117,   1.024e-4
1.118,   1.009e-4
1.119,   9.934e-5
1.120,   9.762e-5
1.121,   9.639e-5
1.122,   9.493e-5
1.123,   9.397e-5
1.124,   9.300e-5
1.125,   9.195e-5
1.126,   9.117e-5
1.127,   9.030e-5
1.128,   8.950e-5
1.129,   8.890e-5
1.130,   8.806e-5
1.131,   8.776e-5
1.132,   8.717e-5
1.133,   8.653e-5
1.134,   8.619e-5
1.135,   8.572e-5
1.136,   8.528e-5
1.137,   8.496e-5
1.138,   8.451e-5
1.139,   8.427e-5
1.140,   8.395e-5
1.141,   8.346e-5
1.142,   8.338e-5
1.143,   8.306e-5
1.144,   8.288e-5
1.145,   8.279e-5
1.146,   8.239e-5
1.147,   8.232e-5
1.148,   8.216e-5
1.149,   8.189e-5
1.150,   8.195e-5
1.151,   8.171e-5
1.152,   8.145e-5
1.153,   8.153e-5
1.154,   8.116e-5
1.155,   8.122e-5
1.156,   8.115e-5
1.157,   8.096e-5
1.158,   8.101e-5
1.159,   8.084e-5
1.160,   8.075e-5
1.161,   8.084e-5
1.162,   8.055e-5
1.163,   8.064e-5
1.164,   8.076e-5
1.165,   8.052e-5
1.166,   8.070e-5
1.167,   8.045e-5
1.168,   8.041e-5
1.169,   8.063e-5
1.170,   8.064e-5
1.171,   8.061e-5
1.172,   8.069e-5
1.173,   8.042e-5
1.174,   8.060e-5
1.175,   8.050e-5
1.176,   8.062e-5
1.177,   8.077e-5
1.178,   8.048e-5
1.179,   8.069e-5
1.180,   8.083e-5
1.181,   8.072e-5
1.182,   8.085e-5
1.183,   8.086e-5
1.184,   8.083e-5
1.185,   8.106e-5
1.186,   8.078e-5
1.187,   8.103e-5
1.188,   8.110e-5
1.189,   8.104e-5
1.190,   8.132e-5
1.191,   8.114e-5
1.192,   8.123e-5
1.193,   8.142e-5
1.194,   8.112e-5
1.195,   8.148e-5
1.196,   8.162e-5
1.197,   8.136e-5
1.198,   8.161e-5
1.199,   8.152e-5
1.200,   8.166e-5
1.201,   8.180e-5
1.202,   8.163e-5
1.203,   8.180e-5
1.204,   8.193e-5
1.205,   8.168e-5
1.206,   8.196e-5
1.207,   8.192e-5
1.208,   8.197e-5
1.209,   8.231e-5
1.210,   8.199e-5
1.211,   8.227e-5
1.212,   8.228e-5
1.213,   8.216e-5
1.214,   8.246e-5
1.215,   8.239e-5
1.216,   8.245e-5
1.217,   8.258e-5
1.218,   8.246e-5
1.219,   8.260e-5
1.220,   8.269e-5
1.221,   8.297e-5
1.222,   8.283e-5
1.223,   8.276e-5
1.224,   8.271e-5
1.225,   8.299e-5
1.226,   8.284e-5
1.227,   8.295e-5
1.228,   8.295e-5
1.229,   8.275e-5
1.230,   8.303e-5
1.231,   8.292e-5
1.232,   8.299e-5
1.233,   8.329e-5
1.234,   8.301e-5
1.235,   8.312e-5
1.236,   8.328e-5
1.237,   8.304e-5
1.238,   8.333e-5
1.239,   8.303e-5
1.240,   8.322e-5
1.241,   8.340e-5
1.242,   8.315e-5
1.243,   8.331e-5
1.244,   8.338e-5
1.245,   8.314e-5
1.246,   8.339e-5
1.247,   8.333e-5
1.248,   8.332e-5
1.249,   8.348e-5
1.250,   8.334e-5
1.251,   8.343e-5
1.252,   8.345e-5
1.253,   8.338e-5
1.254,   8.352e-5
1.255,   8.335e-5
1.256,   8.337e-5
1.257,   8.360e-5
1.258,   8.335e-5
1.259,   8.363e-5
1.260,   8.368e-5
1.261,   8.349e-5
1.262,   8.363e-5
1.263,   8.334e-5
1.264,   8.349e-5
1.265,   8.368e-5
1.266,   8.352e-5
1.267,   8.375e-5
1.268,   8.371e-5
1.269,   8.343e-5
1.270,   8.367e-5
1.271,   8.352e-5
1.272,   8.374e-5
1.273,   8.387e-5
1.274,   8.359e-5
1.275,   8.383e-5
1.276,   8.381e-5
1.277,   8.364e-5
1.278,   8.394e-5
1.279,   8.383e-5
1.280,   8.380e-5
1.281,   8.398e-5
1.282,   8.361e-5
1.283,   8.394e-5
1.284,   8.395e-5
1.285,   8.398e-5
1.286,   8.409e-5
1.287,   8.391e-5
1.288,   8.404e-5
1.289,   8.420e-5
1.290,   8.397e-5
1.291,   8.422e-5
1.292,   8.431e-5
1.293,   8.414e-5
1.294,   8.449e-5
1.295,   8.426e-5
1.296,   8.443e-5
1.297,   8.477e-5
1.298,   8.448e-5
1.299,   8.471e-5
1.300,   8.471e-5
1.301,   8.455e-5
1.302,   8.485e-5
1.303,   8.478e-5
1.304,   8.493e-5
1.305,   8.511e-5
1.306,   8.489e-5
1.307,   8.516e-5
1.308,   8.528e-5
1.309,   8.526e-5
1.310,   8.556e-5
1.311,   8.559e-5
1.312,   8.561e-5
1.313,   8.593e-5
1.314,   8.579e-5
1.315,   8.597e-5
1.316,   8.619e-5
1.317,   8.620e-5
1.318,   8.655e-5
1.319,   8.654e-5
1.320,   8.663e-5
1.321,   8.694e-5
1.322,   8.693e-5
1.323,   8.739e-5
1.324,   8.760e-5
1.325,   8.752e-5
1.326,   8.782e-5
1.327,   8.791e-5
1.328,   8.802e-5
1.329,   8.854e-5
1.330,   8.843e-5
1.331,   8.873e-5
1.332,   8.912e-5
1.333,   8.911e-5
1.334,   8.962e-5
1.335,   8.970e-5
1.336,   9.019e-5
1.337,   9.052e-5
1.338,   9.062e-5
1.339,   9.100e-5
1.340,   9.155e-5
1.341,   9.157e-5
1.342,   9.208e-5
1.343,   9.238e-5
1.344,   9.271e-5
1.345,   9.334e-5
1.346,   9.342e-5
1.347,   9.408e-5
1.348,   9.462e-5
1.349,   9.498e-5
1.350,   9.546e-5
1.351,   9.585e-5
1.352,   9.643e-5
1.353,   9.743e-5
1.354,   9.766e-5
1.355,   9.845e-5
1.356,   9.922e-5
1.357,   9.966e-5
1.358,   1.006e-4
1.359,   1.013e-4
1.360,   1.021e-4
1.361,   1.032e-4
1.362,   1.041e-4
1.363,   1.051e-4
1.364,   1.061e-4
1.365,   1.071e-4
1.366,   1.083e-4
1.367,   1.095e-4
1.368,   1.110e-4
1.369,   1.125e-4
1.370,   1.137e-4
1.371,   1.153e-4
1.372,   1.172e-4
1.373,   1.187e-4
1.374,   1.208e-4
1.375,   1.227e-4
1.376,   1.247e-4
1.377,   1.273e-4
1.378,   1.294e-4
1.379,   1.321e-4
1.380,   1.347e-4
1.381,   1.376e-4
1.382,   1.408e-4
1.383,   1.439e-4
1.384,   1.473e-4
1.385,   1.514e-4
1.386,   1.550e-4
1.387,   1.595e-4
1.388,   1.640e-4
1.389,   1.684e-4
1.390,   1.736e-4
1.391,   1.787e-4
1.392,   1.845e-4
1.393,   1.907e-4
1.394,   1.968e-4
1.395,   2.037e-4
1.396,   2.110e-4
1.397,   2.183e-4
1.398,   2.267e-4
1.399,   2.352e-4
1.400,   2.443e-4
1.401,   2.541e-4
1.402,   2.640e-4
1.403,   2.748e-4
1.404,   2.863e-4
1.405,   2.979e-4
1.406,   3.108e-4
1.407,   3.239e-4
1.408,   3.379e-4
1.409,   3.528e-4
1.410,   3.680e-4
1.411,   3.844e-4
1.412,   4.015e-4
1.413,   4.198e-4
1.414,   4.387e-4
1.415,   4.581e-4
1.416,   4.789e-4
1.417,   5.010e-4
1.418,   5.237e-4
1.419,   5.475e-4
1.420,   5.722e-4
1.421,   5.981e-4
1.422,   6.256e-4
1.423,   6.537e-4
1.424,   6.830e-4
1.425,   7.210e-4
1.426,   7.522e-4
1.427,   7.842e-4
1.428,   8.186e-4
1.429,   8.544e-4
1.430,   8.922e-4
1.431,   9.309e-4
1.432,   9.708e-4
1.433,   1.013e-3
1.434,   1.056e-3
1.435,   1.101e-3
1.436,   1.148e-3
1.437,   1.195e-3
1.438,   1.245e-3
1.439,   1.296e-3
1.440,   1.349e-3
1.441,   1.404e-3
1.442,   1.459e-3
1.443,   1.517e-3
1.444,   1.576e-3
1.445,   1.638e-3
1.446,   1.701e-3
1.447,   1.766e-3
1.448,   1.831e-3
1.449,   1.899e-3
1.450,   1.968e-3
1.451,   2.039e-3
1.452,   2.113e-3
1.453,   2.187e-3
1.454,   2.264e-3
1.455,   2.343e-3
1.456,   2.423e-3
1.457,   2.504e-3
1.458,   2.588e-3
1.459,   2.673e-3
1.460,   2.759e-3
1.461,   2.846e-3
1.462,   2.935e-3
1.463,   3.016e-3
1.464,   3.102e-3
1.465,   3.195e-3
1.466,   3.290e-3
1.467,   3.385e-3
1.468,   3.475e-3
1.469,   3.571e-3
1.470,   3.671e-3
1.471,   3.888e-3
1.472,   4.093e-3
1.473,   4.187e-3
1.474,   4.289e-3
1.475,   4.406e-3
1.476,   4.516e-3
1.477,   4.622e-3
1.478,   4.729e-3
1.479,   4.841e-3
1.480,   4.952e-3
1.481,   5.075e-3
1.482,   5.193e-3
1.483,   5.313e-3
1.484,   5.436e-3
1.485,   5.554e-3
1.486,   5.731e-3
1.487,   6.105e-3
1.488,   6.294e-3
1.489,   6.409e-3
1.490,   6.522e-3
1.491,   6.631e-3
1.492,   6.752e-3
1.493,   6.879e-3
1.494,   7.018e-3
1.495,   7.140e-3
1.496,   7.278e-3
1.497,   7.448e-3
1.498,   7.657e-3
1.499,   7.887e-3
1.500,   8.095e-3
1.501,   8.247e-3
1.502,   8.356e-3
1.503,   8.468e-3
1.504,   8.605e-3
1.505,   8.731e-3
1.506,   8.900e-3
1.507,   9.058e-3
1.508,   9.152e-3
1.509,   9.271e-3
1.510,   9.382e-3
1.511,   9.773e-3
1.512,   1.007e-2
1.513,   1.007e-2
1.514,   1.007e-2
1.515,   1.007e-2
1.516,   1.007e-2
1.517,   1.007e-2
1.518,   1.007e-2