File: Experimental Records and Raw Data/batch3/final500/B3_VARIANCE_500_#4_High_Quality(#25)-259mV.txt
Feb. 24, 2023   15:05:31
Linear Sweep Voltammetry
File: d:\current work\al_oer\electrochemical test data\batch 3\500\B3_VARIANCE_500_#4_High_Quality(#25)-259mV.txt
Data Source:  Experiment
Instrument Model:  CHI660E
Header:
Note:

Init E (V) = 1.099

Final E (V) = 1.576

Scan Rate (V/s) = 0.010
Sample Interval (V) = 0.001
Quiet Time (sec) = 2
Sensitivity (A/V) = 0.001
Comp R (ohm) = 4.8

Results:

Channel 1:

Potential/V, Current/A
1.099,   3.697e-5
1.100,   3.744e-5
1.101,   3.559e-5
1.102,   3.364e-5
1.103,   3.198e-5
1.104,   3.051e-5
1.105,   2.922e-5
1.106,   2.811e-5
1.107,   2.706e-5
1.108,   2.611e-5
1.109,   2.527e-5
1.110,   2.445e-5
1.111,   2.380e-5
1.112,   2.319e-5
1.113,   2.260e-5
1.114,   2.212e-5
1.115,   2.162e-5
1.116,   2.112e-5
1.117,   2.076e-5
1.118,   2.034e-5
1.119,   2.006e-5
1.120,   1.980e-5
1.121,   1.945e-5
1.122,   1.918e-5
1.123,   1.888e-5
1.124,   1.867e-5
1.125,   1.848e-5
1.126,   1.828e-5
1.127,   1.810e-5
1.128,   1.789e-5
1.129,   1.766e-5
1.130,   1.760e-5
1.131,   1.739e-5
1.132,   1.727e-5
1.133,   1.717e-5
1.134,   1.700e-5
1.135,   1.694e-5
1.136,   1.679e-5
1.137,   1.670e-5
1.138,   1.664e-5
1.139,   1.656e-5
1.140,   1.641e-5
1.141,   1.629e-5
1.142,   1.629e-5
1.143,   1.625e-5
1.144,   1.613e-5
1.145,   1.613e-5
1.146,   1.602e-5
1.147,   1.593e-5
1.148,   1.589e-5
1.149,   1.589e-5
1.150,   1.580e-5
1.151,   1.576e-5
1.152,   1.577e-5
1.153,   1.570e-5
1.154,   1.572e-5
1.155,   1.569e-5
1.156,   1.569e-5
1.157,   1.566e-5
1.158,   1.557e-5
1.159,   1.563e-5
1.160,   1.556e-5
1.161,   1.557e-5
1.162,   1.561e-5
1.163,   1.555e-5
1.164,   1.553e-5
1.165,   1.553e-5
1.166,   1.550e-5
1.167,   1.556e-5
1.168,   1.550e-5
1.169,   1.548e-5
1.170,   1.553e-5
1.171,   1.555e-5
1.172,   1.554e-5
1.173,   1.562e-5
1.174,   1.557e-5
1.175,   1.556e-5
1.176,   1.557e-5
1.177,   1.557e-5
1.178,   1.563e-5
1.179,   1.562e-5
1.180,   1.562e-5
1.181,   1.563e-5
1.182,   1.562e-5
1.183,   1.572e-5
1.184,   1.576e-5
1.185,   1.570e-5
1.186,   1.577e-5
1.187,   1.570e-5
1.188,   1.578e-5
1.189,   1.581e-5
1.190,   1.578e-5
1.191,   1.581e-5
1.192,   1.582e-5
1.193,   1.583e-5
1.194,   1.592e-5
1.195,   1.591e-5
1.196,   1.599e-5
1.197,   1.602e-5
1.198,   1.598e-5
1.199,   1.605e-5
1.200,   1.605e-5
1.201,   1.606e-5
1.202,   1.613e-5
1.203,   1.607e-5
1.204,   1.618e-5
1.205,   1.623e-5
1.206,   1.619e-5
1.207,   1.626e-5
1.208,   1.625e-5
1.209,   1.633e-5
1.210,   1.634e-5
1.211,   1.634e-5
1.212,   1.634e-5
1.213,   1.640e-5
1.214,   1.635e-5
1.215,   1.641e-5
1.216,   1.647e-5
1.217,   1.644e-5
1.218,   1.649e-5
1.219,   1.647e-5
1.220,   1.651e-5
1.221,   1.656e-5
1.222,   1.662e-5
1.223,   1.670e-5
1.224,   1.664e-5
1.225,   1.671e-5
1.226,   1.673e-5
1.227,   1.666e-5
1.228,   1.670e-5
1.229,   1.677e-5
1.230,   1.677e-5
1.231,   1.677e-5
1.232,   1.682e-5
1.233,   1.678e-5
1.234,   1.685e-5
1.235,   1.683e-5
1.236,   1.690e-5
1.237,   1.692e-5
1.238,   1.692e-5
1.239,   1.700e-5
1.240,   1.700e-5
1.241,   1.702e-5
1.242,   1.706e-5
1.243,   1.701e-5
1.244,   1.699e-5
1.245,   1.714e-5
1.246,   1.707e-5
1.247,   1.713e-5
1.248,   1.717e-5
1.249,   1.715e-5
1.250,   1.719e-5
1.251,   1.726e-5
1.252,   1.723e-5
1.253,   1.724e-5
1.254,   1.728e-5
1.255,   1.728e-5
1.256,   1.734e-5
1.257,   1.726e-5
1.258,   1.739e-5
1.259,   1.735e-5
1.260,   1.736e-5
1.261,   1.746e-5
1.262,   1.748e-5
1.263,   1.747e-5
1.264,   1.749e-5
1.265,   1.748e-5
1.266,   1.759e-5
1.267,   1.755e-5
1.268,   1.760e-5
1.269,   1.768e-5
1.270,   1.767e-5
1.271,   1.771e-5
1.272,   1.772e-5
1.273,   1.773e-5
1.274,   1.779e-5
1.275,   1.775e-5
1.276,   1.781e-5
1.277,   1.787e-5
1.278,   1.782e-5
1.279,   1.790e-5
1.280,   1.797e-5
1.281,   1.794e-5
1.282,   1.800e-5
1.283,   1.797e-5
1.284,   1.803e-5
1.285,   1.810e-5
1.286,   1.810e-5
1.287,   1.819e-5
1.288,   1.819e-5
1.289,   1.822e-5
1.290,   1.826e-5
1.291,   1.823e-5
1.292,   1.837e-5
1.293,   1.843e-5
1.294,   1.841e-5
1.295,   1.849e-5
1.296,   1.851e-5
1.297,   1.851e-5
1.298,   1.857e-5
1.299,   1.863e-5
1.300,   1.868e-5
1.301,   1.872e-5
1.302,   1.876e-5
1.303,   1.881e-5
1.304,   1.885e-5
1.305,   1.889e-5
1.306,   1.899e-5
1.307,   1.898e-5
1.308,   1.902e-5
1.309,   1.915e-5
1.310,   1.914e-5
1.311,   1.920e-5
1.312,   1.932e-5
1.313,   1.934e-5
1.314,   1.937e-5
1.315,   1.938e-5
1.316,   1.948e-5
1.317,   1.954e-5
1.318,   1.962e-5
1.319,   1.969e-5
1.320,   1.973e-5
1.321,   1.973e-5
1.322,   1.982e-5
1.323,   1.984e-5
1.324,   1.995e-5
1.325,   2.008e-5
1.326,   2.008e-5
1.327,   2.016e-5
1.328,   2.022e-5
1.329,   2.034e-5
1.330,   2.045e-5
1.331,   2.044e-5
1.332,   2.050e-5
1.333,   2.064e-5
1.334,   2.069e-5
1.335,   2.081e-5
1.336,   2.078e-5
1.337,   2.095e-5
1.338,   2.103e-5
1.339,   2.106e-5
1.340,   2.119e-5
1.341,   2.128e-5
1.342,   2.134e-5
1.343,   2.147e-5
1.344,   2.156e-5
1.345,   2.158e-5
1.346,   2.174e-5
1.347,   2.177e-5
1.348,   2.185e-5
1.349,   2.199e-5
1.350,   2.207e-5
1.351,   2.223e-5
1.352,   2.231e-5
1.353,   2.244e-5
1.354,   2.258e-5
1.355,   2.263e-5
1.356,   2.275e-5
1.357,   2.289e-5
1.358,   2.300e-5
1.359,   2.310e-5
1.360,   2.321e-5
1.361,   2.335e-5
1.362,   2.356e-5
1.363,   2.369e-5
1.364,   2.383e-5
1.365,   2.400e-5
1.366,   2.410e-5
1.367,   2.433e-5
1.368,   2.445e-5
1.369,   2.468e-5
1.370,   2.490e-5
1.371,   2.503e-5
1.372,   2.529e-5
1.373,   2.551e-5
1.374,   2.573e-5
1.375,   2.608e-5
1.376,   2.626e-5
1.377,   2.647e-5
1.378,   2.678e-5
1.379,   2.704e-5
1.380,   2.738e-5
1.381,   2.778e-5
1.382,   2.807e-5
1.383,   2.855e-5
1.384,   2.893e-5
1.385,   2.928e-5
1.386,   2.976e-5
1.387,   3.021e-5
1.388,   3.076e-5
1.389,   3.133e-5
1.390,   3.178e-5
1.391,   3.250e-5
1.392,   3.309e-5
1.393,   3.372e-5
1.394,   3.453e-5
1.395,   3.530e-5
1.396,   3.611e-5
1.397,   3.703e-5
1.398,   3.784e-5
1.399,   3.883e-5
1.400,   3.990e-5
1.401,   4.110e-5
1.402,   4.232e-5
1.403,   4.354e-5
1.404,   4.487e-5
1.405,   4.635e-5
1.406,   4.777e-5
1.407,   4.946e-5
1.408,   5.120e-5
1.409,   5.292e-5
1.410,   5.495e-5
1.411,   5.689e-5
1.412,   5.911e-5
1.413,   6.145e-5
1.414,   6.395e-5
1.415,   6.659e-5
1.416,   6.919e-5
1.417,   7.219e-5
1.418,   7.532e-5
1.419,   7.853e-5
1.420,   8.211e-5
1.421,   8.578e-5
1.422,   8.955e-5
1.423,   9.371e-5
1.424,   9.789e-5
1.425,   1.025e-4
1.426,   1.074e-4
1.427,   1.126e-4
1.428,   1.179e-4
1.429,   1.236e-4
1.430,   1.295e-4
1.431,   1.359e-4
1.432,   1.425e-4
1.433,   1.494e-4
1.434,   1.569e-4
1.435,   1.646e-4
1.436,   1.727e-4
1.437,   1.813e-4
1.438,   1.903e-4
1.439,   1.998e-4
1.440,   2.097e-4
1.441,   2.201e-4
1.442,   2.312e-4
1.443,   2.427e-4
1.444,   2.550e-4
1.445,   2.678e-4
1.446,   2.811e-4
1.447,   2.951e-4
1.448,   3.097e-4
1.449,   3.250e-4
1.450,   3.411e-4
1.451,   3.580e-4
1.452,   3.757e-4
1.453,   3.944e-4
1.454,   4.138e-4
1.455,   4.342e-4
1.456,   4.551e-4
1.457,   4.772e-4
1.458,   5.002e-4
1.459,   5.240e-4
1.460,   5.489e-4
1.461,   5.752e-4
1.462,   6.024e-4
1.463,   6.306e-4
1.464,   6.602e-4
1.465,   6.915e-4
1.466,   7.233e-4
1.467,   7.567e-4
1.468,   7.915e-4
1.469,   8.277e-4
1.470,   8.648e-4
1.471,   9.034e-4
1.472,   9.434e-4
1.473,   9.849e-4
1.474,   1.028e-3
1.475,   1.072e-3
1.476,   1.118e-3
1.477,   1.166e-3
1.478,   1.216e-3
1.479,   1.268e-3
1.480,   1.320e-3
1.481,   1.375e-3
1.482,   1.431e-3
1.483,   1.489e-3
1.484,   1.548e-3
1.485,   1.609e-3
1.486,   1.672e-3
1.487,   1.736e-3
1.488,   1.801e-3
1.489,   1.869e-3
1.490,   1.940e-3
1.491,   2.011e-3
1.492,   2.083e-3
1.493,   2.156e-3
1.494,   2.232e-3
1.495,   2.309e-3
1.496,   2.385e-3
1.497,   2.464e-3
1.498,   2.545e-3
1.499,   2.625e-3
1.500,   2.715e-3
1.501,   2.800e-3
1.502,   2.887e-3
1.503,   2.974e-3
1.504,   3.062e-3
1.505,   3.152e-3
1.506,   3.239e-3
1.507,   3.329e-3
1.508,   3.428e-3
1.509,   3.518e-3
1.510,   3.612e-3
1.511,   3.713e-3
1.512,   3.808e-3
1.513,   3.899e-3
1.514,   3.993e-3
1.515,   4.085e-3
1.516,   4.176e-3
1.517,   4.274e-3
1.518,   4.368e-3
1.519,   4.479e-3
1.520,   4.578e-3
1.521,   4.673e-3
1.522,   4.774e-3
1.523,   4.884e-3
1.524,   4.984e-3
1.525,   5.087e-3
1.526,   5.188e-3
1.527,   5.326e-3
1.528,   5.437e-3
1.529,   5.536e-3
1.530,   5.653e-3
1.531,   5.745e-3
1.532,   5.838e-3
1.533,   5.947e-3
1.534,   6.059e-3
1.535,   6.163e-3
1.536,   6.265e-3
1.537,   6.350e-3
1.538,   6.454e-3
1.539,   6.556e-3
1.540,   6.673e-3
1.541,   6.770e-3
1.542,   6.879e-3
1.543,   6.979e-3
1.544,   7.086e-3
1.545,   7.192e-3
1.546,   7.349e-3
1.547,   7.455e-3
1.548,   7.546e-3
1.549,   7.637e-3
1.550,   7.733e-3
1.551,   7.837e-3
1.552,   7.954e-3
1.553,   8.068e-3
1.554,   8.183e-3
1.555,   8.300e-3
1.556,   8.418e-3
1.557,   8.546e-3
1.558,   8.646e-3
1.559,   8.736e-3
1.560,   8.838e-3
1.561,   8.910e-3
1.562,   9.041e-3
1.563,   9.184e-3
1.564,   9.311e-3
1.565,   9.397e-3
1.566,   9.481e-3
1.567,   9.587e-3
1.568,   9.774e-3
1.569,   9.872e-3
1.570,   9.999e-3
1.571,   1.007e-2
1.572,   1.007e-2
1.573,   1.007e-2
1.574,   1.007e-2
1.575,   1.007e-2
1.576,   1.007e-2