File: Experimental Records and Raw Data/batch3/final500/B3_VARIANCE_500_#5_High_Quality(#26)-423mV.txt
Feb. 24, 2023   15:11:15
Linear Sweep Voltammetry
File: d:\current work\al_oer\electrochemical test data\batch 3\500\B3_VARIANCE_500_#5_High_Quality(#26)-423mV.txt
Data Source:  Experiment
Instrument Model:  CHI660E
Header:
Note:

Init E (V) = 1.099

Final E (V) = 1.669

Scan Rate (V/s) = 0.010
Sample Interval (V) = 0.001
Quiet Time (sec) = 2
Sensitivity (A/V) = 0.001
Comp R (ohm) = 4.6

Results:

Channel 1:

Potential/V, Current/A
1.099,   3.937e-8
1.100,   4.796e-7
1.101,   3.520e-7
1.102,   2.339e-7
1.103,   4.410e-8
1.104,   -9.765e-8
1.105,   -1.945e-7
1.106,   -3.764e-7
1.107,   -4.056e-7
1.108,   -5.127e-7
1.109,   -6.095e-7
1.110,   -6.560e-7
1.111,   -6.528e-7
1.112,   -7.064e-7
1.113,   -7.961e-7
1.114,   -8.261e-7
1.115,   -8.591e-7
1.116,   -8.780e-7
1.117,   -8.497e-7
1.118,   -8.725e-7
1.119,   -9.151e-7
1.120,   -8.678e-7
1.121,   -8.497e-7
1.122,   -8.584e-7
1.123,   -8.631e-7
1.124,   -8.119e-7
1.125,   -7.765e-7
1.126,   -8.489e-7
1.127,   -8.095e-7
1.128,   -7.221e-7
1.129,   -7.843e-7
1.130,   -6.709e-7
1.131,   -6.741e-7
1.132,   -6.733e-7
1.133,   -6.323e-7
1.134,   -6.134e-7
1.135,   -5.985e-7
1.136,   -5.512e-7
1.137,   -4.804e-7
1.138,   -4.670e-7
1.139,   -4.205e-7
1.140,   -3.638e-7
1.141,   -3.055e-7
1.142,   -3.355e-7
1.143,   -2.583e-7
1.144,   -1.866e-7
1.145,   -2.134e-7
1.146,   -1.425e-7
1.147,   -1.512e-7
1.148,   -9.214e-8
1.149,   -1.732e-8
1.150,   -1.732e-8
1.151,   4.331e-8
1.152,   7.717e-8
1.153,   7.717e-8
1.154,   2.158e-7
1.155,   2.142e-7
1.156,   2.449e-7
1.157,   2.851e-7
1.158,   3.874e-7
1.159,   4.410e-7
1.160,   4.544e-7
1.161,   5.008e-7
1.162,   5.481e-7
1.163,   5.882e-7
1.164,   6.111e-7
1.165,   6.898e-7
1.166,   7.363e-7
1.167,   7.859e-7
1.168,   7.780e-7
1.169,   8.119e-7
1.170,   8.733e-7
1.171,   9.418e-7
1.172,   9.466e-7
1.173,   1.036e-6
1.174,   1.113e-6
1.175,   1.120e-6
1.176,   1.201e-6
1.177,   1.239e-6
1.178,   1.297e-6
1.179,   1.321e-6
1.180,   1.367e-6
1.181,   1.354e-6
1.182,   1.434e-6
1.183,   1.547e-6
1.184,   1.563e-6
1.185,   1.574e-6
1.186,   1.682e-6
1.187,   1.736e-6
1.188,   1.732e-6
1.189,   1.802e-6
1.190,   1.888e-6
1.191,   1.921e-6
1.192,   1.869e-6
1.193,   1.917e-6
1.194,   2.016e-6
1.195,   2.050e-6
1.196,   2.086e-6
1.197,   2.124e-6
1.198,   2.165e-6
1.199,   2.236e-6
1.200,   2.273e-6
1.201,   2.276e-6
1.202,   2.374e-6
1.203,   2.463e-6
1.204,   2.544e-6
1.205,   2.546e-6
1.206,   2.558e-6
1.207,   2.593e-6
1.208,   2.662e-6
1.209,   2.695e-6
1.210,   2.780e-6
1.211,   2.807e-6
1.212,   2.825e-6
1.213,   2.906e-6
1.214,   2.892e-6
1.215,   2.929e-6
1.216,   2.989e-6
1.217,   3.059e-6
1.218,   3.126e-6
1.219,   3.163e-6
1.220,   3.163e-6
1.221,   3.237e-6
1.222,   3.268e-6
1.223,   3.305e-6
1.224,   3.346e-6
1.225,   3.388e-6
1.226,   3.514e-6
1.227,   3.514e-6
1.228,   3.585e-6
1.229,   3.584e-6
1.230,   3.588e-6
1.231,   3.683e-6
1.232,   3.702e-6
1.233,   3.702e-6
1.234,   3.749e-6
1.235,   3.926e-6
1.236,   3.909e-6
1.237,   3.937e-6
1.238,   3.935e-6
1.239,   4.080e-6
1.240,   4.063e-6
1.241,   4.132e-6
1.242,   4.166e-6
1.243,   4.177e-6
1.244,   4.268e-6
1.245,   4.338e-6
1.246,   4.404e-6
1.247,   4.395e-6
1.248,   4.425e-6
1.249,   4.497e-6
1.250,   4.551e-6
1.251,   4.526e-6
1.252,   4.611e-6
1.253,   4.665e-6
1.254,   4.737e-6
1.255,   4.801e-6
1.256,   4.808e-6
1.257,   4.805e-6
1.258,   4.867e-6
1.259,   4.938e-6
1.260,   4.989e-6
1.261,   5.075e-6
1.262,   5.063e-6
1.263,   5.083e-6
1.264,   5.127e-6
1.265,   5.183e-6
1.266,   5.248e-6
1.267,   5.306e-6
1.268,   5.321e-6
1.269,   5.392e-6
1.270,   5.406e-6
1.271,   5.468e-6
1.272,   5.566e-6
1.273,   5.593e-6
1.274,   5.629e-6
1.275,   5.664e-6
1.276,   5.709e-6
1.277,   5.810e-6
1.278,   5.833e-6
1.279,   5.906e-6
1.280,   5.919e-6
1.281,   5.977e-6
1.282,   6.029e-6
1.283,   6.112e-6
1.284,   6.138e-6
1.285,   6.207e-6
1.286,   6.189e-6
1.287,   6.327e-6
1.288,   6.348e-6
1.289,   6.405e-6
1.290,   6.460e-6
1.291,   6.516e-6
1.292,   6.604e-6
1.293,   6.653e-6
1.294,   6.631e-6
1.295,   6.706e-6
1.296,   6.790e-6
1.297,   6.834e-6
1.298,   6.899e-6
1.299,   7.004e-6
1.300,   7.051e-6
1.301,   7.120e-6
1.302,   7.161e-6
1.303,   7.219e-6
1.304,   7.279e-6
1.305,   7.416e-6
1.306,   7.437e-6
1.307,   7.531e-6
1.308,   7.591e-6
1.309,   7.655e-6
1.310,   7.714e-6
1.311,   7.772e-6
1.312,   7.820e-6
1.313,   7.898e-6
1.314,   7.969e-6
1.315,   8.067e-6
1.316,   8.159e-6
1.317,   8.312e-6
1.318,   8.291e-6
1.319,   8.367e-6
1.320,   8.476e-6
1.321,   8.572e-6
1.322,   8.669e-6
1.323,   8.736e-6
1.324,   8.826e-6
1.325,   8.892e-6
1.326,   8.981e-6
1.327,   9.092e-6
1.328,   9.228e-6
1.329,   9.383e-6
1.330,   9.480e-6
1.331,   9.492e-6
1.332,   9.592e-6
1.333,   9.723e-6
1.334,   9.810e-6
1.335,   9.985e-6
1.336,   1.009e-5
1.337,   1.020e-5
1.338,   1.038e-5
1.339,   1.044e-5
1.340,   1.054e-5
1.341,   1.068e-5
1.342,   1.080e-5
1.343,   1.095e-5
1.344,   1.108e-5
1.345,   1.121e-5
1.346,   1.136e-5
1.347,   1.144e-5
1.348,   1.167e-5
1.349,   1.179e-5
1.350,   1.197e-5
1.351,   1.217e-5
1.352,   1.232e-5
1.353,   1.252e-5
1.354,   1.274e-5
1.355,   1.287e-5
1.356,   1.312e-5
1.357,   1.333e-5
1.358,   1.351e-5
1.359,   1.377e-5
1.360,   1.399e-5
1.361,   1.420e-5
1.362,   1.455e-5
1.363,   1.481e-5
1.364,   1.509e-5
1.365,   1.541e-5
1.366,   1.572e-5
1.367,   1.604e-5
1.368,   1.644e-5
1.369,   1.674e-5
1.370,   1.714e-5
1.371,   1.755e-5
1.372,   1.796e-5
1.373,   1.837e-5
1.374,   1.880e-5
1.375,   1.931e-5
1.376,   1.972e-5
1.377,   2.024e-5
1.378,   2.082e-5
1.379,   2.136e-5
1.380,   2.187e-5
1.381,   2.245e-5
1.382,   2.302e-5
1.383,   2.364e-5
1.384,   2.420e-5
1.385,   2.476e-5
1.386,   2.544e-5
1.387,   2.609e-5
1.388,   2.676e-5
1.389,   2.739e-5
1.390,   2.808e-5
1.391,   2.878e-5
1.392,   2.951e-5
1.393,   3.026e-5
1.394,   3.099e-5
1.395,   3.173e-5
1.396,   3.247e-5
1.397,   3.323e-5
1.398,   3.400e-5
1.399,   3.476e-5
1.400,   3.558e-5
1.401,   3.648e-5
1.402,   3.738e-5
1.403,   3.822e-5
1.404,   3.917e-5
1.405,   4.004e-5
1.406,   4.097e-5
1.407,   4.201e-5
1.408,   4.315e-5
1.409,   4.417e-5
1.410,   4.532e-5
1.411,   4.642e-5
1.412,   4.756e-5
1.413,   4.885e-5
1.414,   5.010e-5
1.415,   5.151e-5
1.416,   5.283e-5
1.417,   5.425e-5
1.418,   5.572e-5
1.419,   5.722e-5
1.420,   5.891e-5
1.421,   6.060e-5
1.422,   6.232e-5
1.423,   6.416e-5
1.424,   6.605e-5
1.425,   6.797e-5
1.426,   7.001e-5
1.427,   7.216e-5
1.428,   7.438e-5
1.429,   7.677e-5
1.430,   7.907e-5
1.431,   8.162e-5
1.432,   8.421e-5
1.433,   8.686e-5
1.434,   8.969e-5
1.435,   9.258e-5
1.436,   9.559e-5
1.437,   9.870e-5
1.438,   1.020e-4
1.439,   1.054e-4
1.440,   1.088e-4
1.441,   1.124e-4
1.442,   1.161e-4
1.443,   1.198e-4
1.444,   1.238e-4
1.445,   1.279e-4
1.446,   1.321e-4
1.447,   1.364e-4
1.448,   1.408e-4
1.449,   1.453e-4
1.450,   1.499e-4
1.451,   1.547e-4
1.452,   1.597e-4
1.453,   1.647e-4
1.454,   1.698e-4
1.455,   1.750e-4
1.456,   1.803e-4
1.457,   1.859e-4
1.458,   1.915e-4
1.459,   1.972e-4
1.460,   2.031e-4
1.461,   2.089e-4
1.462,   2.150e-4
1.463,   2.211e-4
1.464,   2.274e-4
1.465,   2.337e-4
1.466,   2.402e-4
1.467,   2.467e-4
1.468,   2.534e-4
1.469,   2.601e-4
1.470,   2.668e-4
1.471,   2.738e-4
1.472,   2.808e-4
1.473,   2.879e-4
1.474,   2.951e-4
1.475,   3.024e-4
1.476,   3.096e-4
1.477,   3.169e-4
1.478,   3.243e-4
1.479,   3.316e-4
1.480,   3.391e-4
1.481,   3.468e-4
1.482,   3.544e-4
1.483,   3.621e-4
1.484,   3.700e-4
1.485,   3.779e-4
1.486,   3.857e-4
1.487,   3.936e-4
1.488,   4.016e-4
1.489,   4.097e-4
1.490,   4.177e-4
1.491,   4.255e-4
1.492,   4.335e-4
1.493,   4.414e-4
1.494,   4.493e-4
1.495,   4.573e-4
1.496,   4.652e-4
1.497,   4.731e-4
1.498,   4.814e-4
1.499,   4.896e-4
1.500,   4.972e-4
1.501,   5.051e-4
1.502,   5.130e-4
1.503,   5.210e-4
1.504,   5.286e-4
1.505,   5.366e-4
1.506,   5.447e-4
1.507,   5.527e-4
1.508,   5.607e-4
1.509,   5.685e-4
1.510,   5.763e-4
1.511,   5.843e-4
1.512,   5.923e-4
1.513,   6.001e-4
1.514,   6.075e-4
1.515,   6.147e-4
1.516,   6.228e-4
1.517,   6.311e-4
1.518,   6.391e-4
1.519,   6.468e-4
1.520,   6.543e-4
1.521,   6.618e-4
1.522,   6.693e-4
1.523,   6.771e-4
1.524,   6.847e-4
1.525,   6.924e-4
1.526,   6.998e-4
1.527,   7.072e-4
1.528,   7.149e-4
1.529,   7.227e-4
1.530,   7.302e-4
1.531,   7.376e-4
1.532,   7.450e-4
1.533,   7.523e-4
1.534,   7.597e-4
1.535,   7.670e-4
1.536,   7.746e-4
1.537,   7.825e-4
1.538,   7.902e-4
1.539,   7.976e-4
1.540,   8.055e-4
1.541,   8.133e-4
1.542,   8.211e-4
1.543,   8.287e-4
1.544,   8.363e-4
1.545,   8.441e-4
1.546,   8.518e-4
1.547,   8.592e-4
1.548,   8.673e-4
1.549,   8.753e-4
1.550,   8.831e-4
1.551,   8.909e-4
1.552,   8.983e-4
1.553,   9.069e-4
1.554,   9.149e-4
1.555,   9.229e-4
1.556,   9.309e-4
1.557,   9.391e-4
1.558,   9.477e-4
1.559,   9.561e-4
1.560,   9.645e-4
1.561,   9.729e-4
1.562,   9.811e-4
1.563,   9.897e-4
1.564,   9.981e-4
1.565,   1.007e-3
1.566,   1.015e-3
1.567,   1.024e-3
1.568,   1.033e-3
1.569,   1.042e-3
1.570,   1.051e-3
1.571,   1.060e-3
1.572,   1.069e-3
1.573,   1.079e-3
1.574,   1.088e-3
1.575,   1.097e-3
1.576,   1.106e-3
1.577,   1.116e-3
1.578,   1.125e-3
1.579,   1.135e-3
1.580,   1.144e-3
1.581,   1.153e-3
1.582,   1.163e-3
1.583,   1.172e-3
1.584,   1.183e-3
1.585,   1.193e-3
1.586,   1.202e-3
1.587,   1.213e-3
1.588,   1.223e-3
1.589,   1.233e-3
1.590,   1.244e-3
1.591,   1.255e-3
1.592,   1.266e-3
1.593,   1.276e-3
1.594,   1.286e-3
1.595,   1.296e-3
1.596,   1.308e-3
1.597,   1.319e-3
1.598,   1.330e-3
1.599,   1.341e-3
1.600,   1.352e-3
1.601,   1.363e-3
1.602,   1.374e-3
1.603,   1.386e-3
1.604,   1.397e-3
1.605,   1.408e-3
1.606,   1.419e-3
1.607,   1.431e-3
1.608,   1.443e-3
1.609,   1.455e-3
1.610,   1.466e-3
1.611,   1.477e-3
1.612,   1.487e-3
1.613,   1.498e-3
1.614,   1.510e-3
1.615,   1.521e-3
1.616,   1.533e-3
1.617,   1.545e-3
1.618,   1.558e-3
1.619,   1.572e-3
1.620,   1.584e-3
1.621,   1.597e-3
1.622,   1.608e-3
1.623,   1.618e-3
1.624,   1.627e-3
1.625,   1.640e-3
1.626,   1.652e-3
1.627,   1.663e-3
1.628,   1.674e-3
1.629,   1.686e-3
1.630,   1.699e-3
1.631,   1.711e-3
1.632,   1.723e-3
1.633,   1.736e-3
1.634,   1.747e-3
1.635,   1.758e-3
1.636,   1.769e-3
1.637,   1.780e-3
1.638,   1.792e-3
1.639,   1.803e-3
1.640,   1.814e-3
1.641,   1.825e-3
1.642,   1.836e-3
1.643,   1.845e-3
1.644,   1.856e-3
1.645,   1.867e-3
1.646,   1.878e-3
1.647,   1.890e-3
1.648,   1.900e-3
1.649,   1.911e-3
1.650,   1.922e-3
1.651,   1.931e-3
1.652,   1.942e-3
1.653,   1.952e-3
1.654,   1.962e-3
1.655,   1.972e-3
1.656,   1.982e-3
1.657,   1.991e-3
1.658,   2.001e-3
1.659,   2.011e-3
1.660,   2.020e-3
1.661,   2.029e-3
1.662,   2.038e-3
1.663,   2.048e-3
1.664,   2.056e-3
1.665,   2.064e-3
1.666,   2.072e-3
1.667,   2.082e-3
1.668,   2.092e-3
1.669,   2.103e-3