File: Experimental Records and Raw Data/batch4/final500/B4_BEST_500_#7_High_Quality(#23)-196mV.txt
Mar. 29, 2023   12:49:14
Linear Sweep Voltammetry
File: d:\current work\al_oer\electrochemical test data\batch 4\500\B4_BEST_500_#7_High_Quality(#23)-196mV.txt
Data Source:  Experiment
Instrument Model:  CHI660E
Header:
Note:

Init E (V) = 1.098

Final E (V) = 1.540

Scan Rate (V/s) = 0.010
Sample Interval (V) = 0.001
Quiet Time (sec) = 2
Sensitivity (A/V) = 0.001
Comp R (ohm) = 5.4

Results:

Channel 1:

Potential/V, Current/A
1.098,   9.864E-04
1.099,   8.995E-04
1.1,   8.245E-04
1.101,   7.596E-04
1.102,   7.049E-04
1.103,   6.572E-04
1.104,   6.160E-04
1.105,   5.799E-04
1.106,   5.482E-04
1.107,   5.207E-04
1.108,   4.963E-04
1.109,   4.743E-04
1.11,   4.547E-04
1.111,   4.367E-04
1.112,   4.207E-04
1.113,   4.060E-04
1.114,   3.924E-04
1.115,   3.807E-04
1.116,   3.699E-04
1.117,   3.594E-04
1.118,   3.500E-04
1.119,   3.415E-04
1.12,   3.332E-04
1.121,   3.258E-04
1.122,   3.186E-04
1.123,   3.122E-04
1.124,   3.062E-04
1.125,   3.006E-04
1.126,   2.958E-04
1.127,   2.909E-04
1.128,   2.864E-04
1.129,   2.822E-04
1.13,   2.782E-04
1.131,   2.747E-04
1.132,   2.713E-04
1.133,   2.680E-04
1.134,   2.647E-04
1.135,   2.617E-04
1.136,   2.589E-04
1.137,   2.563E-04
1.138,   2.540E-04
1.139,   2.517E-04
1.14,   2.496E-04
1.141,   2.477E-04
1.142,   2.458E-04
1.143,   2.440E-04
1.144,   2.425E-04
1.145,   2.408E-04
1.146,   2.391E-04
1.147,   2.379E-04
1.148,   2.362E-04
1.149,   2.348E-04
1.15,   2.339E-04
1.151,   2.325E-04
1.152,   2.317E-04
1.153,   2.307E-04
1.154,   2.297E-04
1.155,   2.289E-04
1.156,   2.281E-04
1.157,   2.274E-04
1.158,   2.265E-04
1.159,   2.257E-04
1.16,   2.251E-04
1.161,   2.243E-04
1.162,   2.237E-04
1.163,   2.234E-04
1.164,   2.232E-04
1.165,   2.227E-04
1.166,   2.223E-04
1.167,   2.216E-04
1.168,   2.215E-04
1.169,   2.211E-04
1.17,   2.208E-04
1.171,   2.206E-04
1.172,   2.204E-04
1.173,   2.201E-04
1.174,   2.201E-04
1.175,   2.197E-04
1.176,   2.197E-04
1.177,   2.197E-04
1.178,   2.194E-04
1.179,   2.195E-04
1.18,   2.195E-04
1.181,   2.192E-04
1.182,   2.194E-04
1.183,   2.195E-04
1.184,   2.195E-04
1.185,   2.195E-04
1.186,   2.195E-04
1.187,   2.197E-04
1.188,   2.198E-04
1.189,   2.201E-04
1.19,   2.202E-04
1.191,   2.204E-04
1.192,   2.206E-04
1.193,   2.208E-04
1.194,   2.206E-04
1.195,   2.209E-04
1.196,   2.213E-04
1.197,   2.215E-04
1.198,   2.219E-04
1.199,   2.222E-04
1.2,   2.223E-04
1.201,   2.229E-04
1.202,   2.232E-04
1.203,   2.232E-04
1.204,   2.236E-04
1.205,   2.240E-04
1.206,   2.244E-04
1.207,   2.247E-04
1.208,   2.254E-04
1.209,   2.260E-04
1.21,   2.262E-04
1.211,   2.267E-04
1.212,   2.269E-04
1.213,   2.274E-04
1.214,   2.281E-04
1.215,   2.285E-04
1.216,   2.288E-04
1.217,   2.295E-04
1.218,   2.299E-04
1.219,   2.304E-04
1.22,   2.309E-04
1.221,   2.316E-04
1.222,   2.320E-04
1.223,   2.324E-04
1.224,   2.330E-04
1.225,   2.337E-04
1.226,   2.341E-04
1.227,   2.349E-04
1.228,   2.356E-04
1.229,   2.360E-04
1.23,   2.366E-04
1.231,   2.372E-04
1.232,   2.377E-04
1.233,   2.387E-04
1.234,   2.393E-04
1.235,   2.400E-04
1.236,   2.405E-04
1.237,   2.414E-04
1.238,   2.422E-04
1.239,   2.425E-04
1.24,   2.433E-04
1.241,   2.442E-04
1.242,   2.447E-04
1.243,   2.456E-04
1.244,   2.463E-04
1.245,   2.468E-04
1.246,   2.478E-04
1.247,   2.488E-04
1.248,   2.495E-04
1.249,   2.505E-04
1.25,   2.512E-04
1.251,   2.520E-04
1.252,   2.527E-04
1.253,   2.535E-04
1.254,   2.545E-04
1.255,   2.554E-04
1.256,   2.563E-04
1.257,   2.572E-04
1.258,   2.580E-04
1.259,   2.591E-04
1.26,   2.603E-04
1.261,   2.611E-04
1.262,   2.619E-04
1.263,   2.629E-04
1.264,   2.639E-04
1.265,   2.650E-04
1.266,   2.659E-04
1.267,   2.671E-04
1.268,   2.682E-04
1.269,   2.692E-04
1.27,   2.705E-04
1.271,   2.715E-04
1.272,   2.726E-04
1.273,   2.738E-04
1.274,   2.748E-04
1.275,   2.762E-04
1.276,   2.775E-04
1.277,   2.785E-04
1.278,   2.799E-04
1.279,   2.814E-04
1.28,   2.827E-04
1.281,   2.841E-04
1.282,   2.852E-04
1.283,   2.869E-04
1.284,   2.883E-04
1.285,   2.898E-04
1.286,   2.915E-04
1.287,   2.927E-04
1.288,   2.943E-04
1.289,   2.961E-04
1.29,   2.976E-04
1.291,   2.995E-04
1.292,   3.011E-04
1.293,   3.027E-04
1.294,   3.046E-04
1.295,   3.062E-04
1.296,   3.081E-04
1.297,   3.105E-04
1.298,   3.125E-04
1.299,   3.144E-04
1.3,   3.163E-04
1.301,   3.184E-04
1.302,   3.205E-04
1.303,   3.226E-04
1.304,   3.248E-04
1.305,   3.273E-04
1.306,   3.297E-04
1.307,   3.325E-04
1.308,   3.349E-04
1.309,   3.374E-04
1.31,   3.402E-04
1.311,   3.434E-04
1.312,   3.465E-04
1.313,   3.496E-04
1.314,   3.528E-04
1.315,   3.560E-04
1.316,   3.594E-04
1.317,   3.629E-04
1.318,   3.667E-04
1.319,   3.702E-04
1.32,   3.741E-04
1.321,   3.784E-04
1.322,   3.825E-04
1.323,   3.875E-04
1.324,   3.920E-04
1.325,   3.963E-04
1.326,   4.014E-04
1.327,   4.064E-04
1.328,   4.117E-04
1.329,   4.171E-04
1.33,   4.225E-04
1.331,   4.278E-04
1.332,   4.332E-04
1.333,   4.385E-04
1.334,   4.451E-04
1.335,   4.511E-04
1.336,   4.574E-04
1.337,   4.640E-04
1.338,   4.697E-04
1.339,   4.761E-04
1.34,   4.826E-04
1.341,   4.894E-04
1.342,   4.962E-04
1.343,   5.027E-04
1.344,   5.093E-04
1.345,   5.162E-04
1.346,   5.225E-04
1.347,   5.296E-04
1.348,   5.366E-04
1.349,   5.435E-04
1.35,   5.509E-04
1.351,   5.578E-04
1.352,   5.648E-04
1.353,   5.718E-04
1.354,   5.782E-04
1.355,   5.856E-04
1.356,   5.925E-04
1.357,   5.991E-04
1.358,   6.059E-04
1.359,   6.126E-04
1.36,   6.192E-04
1.361,   6.259E-04
1.362,   6.331E-04
1.363,   6.398E-04
1.364,   6.458E-04
1.365,   6.521E-04
1.366,   6.586E-04
1.367,   6.649E-04
1.368,   6.719E-04
1.369,   6.789E-04
1.37,   6.853E-04
1.371,   6.924E-04
1.372,   6.993E-04
1.373,   7.062E-04
1.374,   7.140E-04
1.375,   7.213E-04
1.376,   7.290E-04
1.377,   7.368E-04
1.378,   7.449E-04
1.379,   7.536E-04
1.38,   7.623E-04
1.381,   7.717E-04
1.382,   7.812E-04
1.383,   7.909E-04
1.384,   8.008E-04
1.385,   8.126E-04
1.386,   8.257E-04
1.387,   8.396E-04
1.388,   8.540E-04
1.389,   8.687E-04
1.39,   8.844E-04
1.391,   9.003E-04
1.392,   9.166E-04
1.393,   9.323E-04
1.394,   9.485E-04
1.395,   9.677E-04
1.396,   9.883E-04
1.397,   1.012E-03
1.398,   1.036E-03
1.399,   1.057E-03
1.4,   1.079E-03
1.401,   1.103E-03
1.402,   1.134E-03
1.403,   1.163E-03
1.404,   1.190E-03
1.405,   1.218E-03
1.406,   1.248E-03
1.407,   1.280E-03
1.408,   1.313E-03
1.409,   1.352E-03
1.41,   1.388E-03
1.411,   1.424E-03
1.412,   1.462E-03
1.413,   1.506E-03
1.414,   1.546E-03
1.415,   1.586E-03
1.416,   1.635E-03
1.417,   1.676E-03
1.418,   1.718E-03
1.419,   1.764E-03
1.42,   1.800E-03
1.421,   1.834E-03
1.422,   1.875E-03
1.423,   1.901E-03
1.424,   1.925E-03
1.425,   1.949E-03
1.426,   1.954E-03
1.427,   1.964E-03
1.428,   1.963E-03
1.429,   1.945E-03
1.43,   1.931E-03
1.431,   1.901E-03
1.432,   1.866E-03
1.433,   1.834E-03
1.434,   1.795E-03
1.435,   1.743E-03
1.436,   1.688E-03
1.437,   1.634E-03
1.438,   1.581E-03
1.439,   1.523E-03
1.44,   1.464E-03
1.441,   1.406E-03
1.442,   1.349E-03
1.443,   1.293E-03
1.444,   1.236E-03
1.445,   1.185E-03
1.446,   1.136E-03
1.447,   1.085E-03
1.448,   1.031E-03
1.449,   9.786E-04
1.45,   9.345E-04
1.451,   8.940E-04
1.452,   8.569E-04
1.453,   8.217E-04
1.454,   7.830E-04
1.455,   7.503E-04
1.456,   7.230E-04
1.457,   6.958E-04
1.458,   6.699E-04
1.459,   6.454E-04
1.46,   6.217E-04
1.461,   5.993E-04
1.462,   5.760E-04
1.463,   5.519E-04
1.464,   5.330E-04
1.465,   5.174E-04
1.466,   5.022E-04
1.467,   4.883E-04
1.468,   4.747E-04
1.469,   4.620E-04
1.47,   4.491E-04
1.471,   4.378E-04
1.472,   4.256E-04
1.473,   4.134E-04
1.474,   4.024E-04
1.475,   3.916E-04
1.476,   3.812E-04
1.477,   3.718E-04
1.478,   3.625E-04
1.479,   3.542E-04
1.48,   3.473E-04
1.481,   3.396E-04
1.482,   3.329E-04
1.483,   3.286E-04
1.484,   3.237E-04
1.485,   3.193E-04
1.486,   3.143E-04
1.487,   3.094E-04
1.488,   3.046E-04
1.489,   3.007E-04
1.49,   2.967E-04
1.491,   2.927E-04
1.492,   2.884E-04
1.493,   2.841E-04
1.494,   2.797E-04
1.495,   2.758E-04
1.496,   2.722E-04
1.497,   2.682E-04
1.498,   2.640E-04
1.499,   2.608E-04
1.5,   2.580E-04
1.501,   2.544E-04
1.502,   2.509E-04
1.503,   2.479E-04
1.504,   2.451E-04
1.505,   2.428E-04
1.506,   2.400E-04
1.507,   2.374E-04
1.508,   2.352E-04
1.509,   2.334E-04
1.51,   2.307E-04
1.511,   2.290E-04
1.512,   2.272E-04
1.513,   2.254E-04
1.514,   2.241E-04
1.515,   2.223E-04
1.516,   2.209E-04
1.517,   2.184E-04
1.518,   2.164E-04
1.519,   2.145E-04
1.52,   2.120E-04
1.521,   2.114E-04
1.522,   2.099E-04
1.523,   2.086E-04
1.524,   2.071E-04
1.525,   2.057E-04
1.526,   2.045E-04
1.527,   2.029E-04
1.528,   2.015E-04
1.529,   1.994E-04
1.53,   1.978E-04
1.531,   1.954E-04
1.532,   1.942E-04
1.533,   1.932E-04
1.534,   1.917E-04
1.535,   1.898E-04
1.536,   1.883E-04
1.537,   1.877E-04
1.538,   1.868E-04
1.539,   1.854E-04
1.54,   1.833E-04