File: Experimental Records and Raw Data/batch4/final500/B4_BEST_500_#2_Full-247mV.txt
Mar. 29, 2023   11:53:50
Linear Sweep Voltammetry
File: d:\current work\al_oer\electrochemical test data\batch 4\500\B4_BEST_500_#2_Full-247mV.txt
Data Source:  Experiment
Instrument Model:  CHI660E
Header:
Note:

Init E (V) = 1.149

Final E (V) = 1.520

Scan Rate (V/s) = 0.010
Sample Interval (V) = 0.001
Quiet Time (sec) = 2
Sensitivity (A/V) = 0.001
Comp R (ohm) = 6.1

Results:

Channel 1:

Potential/V, Current/A
1.149,   4.483e-4
1.150,   4.167e-4
1.151,   3.840e-4
1.152,   3.546e-4
1.153,   3.290e-4
1.154,   3.066e-4
1.155,   2.871e-4
1.156,   2.700e-4
1.157,   2.547e-4
1.158,   2.411e-4
1.159,   2.287e-4
1.160,   2.176e-4
1.161,   2.078e-4
1.162,   1.988e-4
1.163,   1.908e-4
1.164,   1.833e-4
1.165,   1.764e-4
1.166,   1.702e-4
1.167,   1.645e-4
1.168,   1.591e-4
1.169,   1.544e-4
1.170,   1.501e-4
1.171,   1.457e-4
1.172,   1.418e-4
1.173,   1.380e-4
1.174,   1.348e-4
1.175,   1.315e-4
1.176,   1.284e-4
1.177,   1.257e-4
1.178,   1.231e-4
1.179,   1.206e-4
1.180,   1.185e-4
1.181,   1.162e-4
1.182,   1.142e-4
1.183,   1.124e-4
1.184,   1.104e-4
1.185,   1.087e-4
1.186,   1.070e-4
1.187,   1.055e-4
1.188,   1.041e-4
1.189,   1.026e-4
1.190,   1.013e-4
1.191,   1.002e-4
1.192,   9.892e-5
1.193,   9.790e-5
1.194,   9.676e-5
1.195,   9.580e-5
1.196,   9.492e-5
1.197,   9.384e-5
1.198,   9.307e-5
1.199,   9.228e-5
1.200,   9.141e-5
1.201,   9.078e-5
1.202,   9.003e-5
1.203,   8.933e-5
1.204,   8.877e-5
1.205,   8.795e-5
1.206,   8.747e-5
1.207,   8.697e-5
1.208,   8.641e-5
1.209,   8.595e-5
1.210,   8.535e-5
1.211,   8.488e-5
1.212,   8.455e-5
1.213,   8.397e-5
1.214,   8.366e-5
1.215,   8.333e-5
1.216,   8.281e-5
1.217,   8.252e-5
1.218,   8.218e-5
1.219,   8.178e-5
1.220,   8.168e-5
1.221,   8.143e-5
1.222,   8.110e-5
1.223,   8.087e-5
1.224,   8.054e-5
1.225,   8.046e-5
1.226,   8.003e-5
1.227,   7.990e-5
1.228,   7.975e-5
1.229,   7.944e-5
1.230,   7.930e-5
1.231,   7.913e-5
1.232,   7.883e-5
1.233,   7.884e-5
1.234,   7.878e-5
1.235,   7.850e-5
1.236,   7.844e-5
1.237,   7.816e-5
1.238,   7.808e-5
1.239,   7.803e-5
1.240,   7.792e-5
1.241,   7.785e-5
1.242,   7.761e-5
1.243,   7.759e-5
1.244,   7.758e-5
1.245,   7.736e-5
1.246,   7.741e-5
1.247,   7.738e-5
1.248,   7.721e-5
1.249,   7.719e-5
1.250,   7.712e-5
1.251,   7.701e-5
1.252,   7.711e-5
1.253,   7.697e-5
1.254,   7.699e-5
1.255,   7.697e-5
1.256,   7.683e-5
1.257,   7.693e-5
1.258,   7.679e-5
1.259,   7.690e-5
1.260,   7.693e-5
1.261,   7.669e-5
1.262,   7.672e-5
1.263,   7.670e-5
1.264,   7.661e-5
1.265,   7.682e-5
1.266,   7.675e-5
1.267,   7.665e-5
1.268,   7.677e-5
1.269,   7.655e-5
1.270,   7.672e-5
1.271,   7.676e-5
1.272,   7.666e-5
1.273,   7.681e-5
1.274,   7.675e-5
1.275,   7.674e-5
1.276,   7.694e-5
1.277,   7.676e-5
1.278,   7.685e-5
1.279,   7.701e-5
1.280,   7.690e-5
1.281,   7.706e-5
1.282,   7.704e-5
1.283,   7.698e-5
1.284,   7.717e-5
1.285,   7.723e-5
1.286,   7.725e-5
1.287,   7.732e-5
1.288,   7.720e-5
1.289,   7.735e-5
1.290,   7.730e-5
1.291,   7.749e-5
1.292,   7.764e-5
1.293,   7.748e-5
1.294,   7.762e-5
1.295,   7.765e-5
1.296,   7.763e-5
1.297,   7.786e-5
1.298,   7.788e-5
1.299,   7.786e-5
1.300,   7.806e-5
1.301,   7.805e-5
1.302,   7.816e-5
1.303,   7.824e-5
1.304,   7.825e-5
1.305,   7.840e-5
1.306,   7.839e-5
1.307,   7.848e-5
1.308,   7.870e-5
1.309,   7.850e-5
1.310,   7.877e-5
1.311,   7.894e-5
1.312,   7.888e-5
1.313,   7.909e-5
1.314,   7.911e-5
1.315,   7.913e-5
1.316,   7.931e-5
1.317,   7.930e-5
1.318,   7.948e-5
1.319,   7.952e-5
1.320,   7.956e-5
1.321,   7.977e-5
1.322,   7.979e-5
1.323,   8.003e-5
1.324,   8.029e-5
1.325,   8.013e-5
1.326,   8.025e-5
1.327,   8.045e-5
1.328,   8.040e-5
1.329,   8.063e-5
1.330,   8.072e-5
1.331,   8.091e-5
1.332,   8.115e-5
1.333,   8.110e-5
1.334,   8.129e-5
1.335,   8.130e-5
1.336,   8.156e-5
1.337,   8.173e-5
1.338,   8.180e-5
1.339,   8.194e-5
1.340,   8.224e-5
1.341,   8.217e-5
1.342,   8.242e-5
1.343,   8.272e-5
1.344,   8.269e-5
1.345,   8.294e-5
1.346,   8.303e-5
1.347,   8.318e-5
1.348,   8.349e-5
1.349,   8.372e-5
1.350,   8.389e-5
1.351,   8.418e-5
1.352,   8.420e-5
1.353,   8.449e-5
1.354,   8.460e-5
1.355,   8.487e-5
1.356,   8.522e-5
1.357,   8.519e-5
1.358,   8.549e-5
1.359,   8.583e-5
1.360,   8.594e-5
1.361,   8.647e-5
1.362,   8.670e-5
1.363,   8.675e-5
1.364,   8.719e-5
1.365,   8.727e-5
1.366,   8.757e-5
1.367,   8.797e-5
1.368,   8.813e-5
1.369,   8.862e-5
1.370,   8.878e-5
1.371,   8.911e-5
1.372,   8.965e-5
1.373,   8.974e-5
1.374,   9.043e-5
1.375,   9.087e-5
1.376,   9.096e-5
1.377,   9.143e-5
1.378,   9.177e-5
1.379,   9.206e-5
1.380,   9.270e-5
1.381,   9.300e-5
1.382,   9.354e-5
1.383,   9.399e-5
1.384,   9.436e-5
1.385,   9.495e-5
1.386,   9.550e-5
1.387,   9.612e-5
1.388,   9.685e-5
1.389,   9.711e-5
1.390,   9.784e-5
1.391,   9.853e-5
1.392,   9.910e-5
1.393,   9.998e-5
1.394,   1.007e-4
1.395,   1.014e-4
1.396,   1.023e-4
1.397,   1.031e-4
1.398,   1.041e-4
1.399,   1.051e-4
1.400,   1.060e-4
1.401,   1.072e-4
1.402,   1.081e-4
1.403,   1.092e-4
1.404,   1.107e-4
1.405,   1.117e-4
1.406,   1.133e-4
1.407,   1.147e-4
1.408,   1.161e-4
1.409,   1.179e-4
1.410,   1.196e-4
1.411,   1.213e-4
1.412,   1.234e-4
1.413,   1.255e-4
1.414,   1.276e-4
1.415,   1.299e-4
1.416,   1.323e-4
1.417,   1.351e-4
1.418,   1.376e-4
1.419,   1.409e-4
1.420,   1.441e-4
1.421,   1.472e-4
1.422,   1.509e-4
1.423,   1.548e-4
1.424,   1.588e-4
1.425,   1.634e-4
1.426,   1.681e-4
1.427,   1.730e-4
1.428,   1.785e-4
1.429,   1.840e-4
1.430,   1.903e-4
1.431,   1.967e-4
1.432,   2.035e-4
1.433,   2.111e-4
1.434,   2.190e-4
1.435,   2.277e-4
1.436,   2.372e-4
1.437,   2.469e-4
1.438,   2.576e-4
1.439,   2.691e-4
1.440,   2.807e-4
1.441,   2.935e-4
1.442,   3.071e-4
1.443,   3.216e-4
1.444,   3.370e-4
1.445,   3.536e-4
1.446,   3.718e-4
1.447,   3.907e-4
1.448,   4.107e-4
1.449,   4.322e-4
1.450,   4.544e-4
1.451,   4.791e-4
1.452,   5.048e-4
1.453,   5.313e-4
1.454,   5.600e-4
1.455,   5.903e-4
1.456,   6.222e-4
1.457,   6.568e-4
1.458,   6.936e-4
1.459,   7.316e-4
1.460,   7.719e-4
1.461,   8.139e-4
1.462,   8.587e-4
1.463,   9.058e-4
1.464,   9.551e-4
1.465,   1.007e-3
1.466,   1.061e-3
1.467,   1.119e-3
1.468,   1.179e-3
1.469,   1.243e-3
1.470,   1.311e-3
1.471,   1.381e-3
1.472,   1.453e-3
1.473,   1.531e-3
1.474,   1.611e-3
1.475,   1.692e-3
1.476,   1.776e-3
1.477,   1.867e-3
1.478,   1.962e-3
1.479,   2.062e-3
1.480,   2.169e-3
1.481,   2.277e-3
1.482,   2.384e-3
1.483,   2.502e-3
1.484,   2.623e-3
1.485,   2.747e-3
1.486,   2.883e-3
1.487,   3.021e-3
1.488,   3.163e-3
1.489,   3.316e-3
1.490,   3.467e-3
1.491,   3.616e-3
1.492,   3.781e-3
1.493,   3.947e-3
1.494,   4.196e-3
1.495,   4.432e-3
1.496,   4.631e-3
1.497,   4.842e-3
1.498,   5.049e-3
1.499,   5.255e-3
1.500,   5.467e-3
1.501,   5.723e-3
1.502,   5.987e-3
1.503,   6.220e-3
1.504,   6.458e-3
1.505,   6.718e-3
1.506,   6.971e-3
1.507,   7.218e-3
1.508,   7.480e-3
1.509,   7.762e-3
1.510,   8.023e-3
1.511,   8.282e-3
1.512,   8.558e-3
1.513,   8.823e-3
1.514,   9.093e-3
1.515,   9.475e-3
1.516,   9.770e-3
1.517,   9.977e-3
1.518,   1.006e-2
1.519,   1.006e-2
1.520,   1.006e-2