File: Experimental Records and Raw Data/batch4/final500/B4_BEST_500_#8_Full-226mV.txt
Mar. 28, 2023   12:44:16
Linear Sweep Voltammetry
File: d:\current work\al_oer\electrochemical test data\batch 4\500\B4_BEST_500_#8_Full-226mV.txt
Data Source:  Experiment
Instrument Model:  CHI660E
Header:
Note:

Init E (V) = 1.098

Final E (V) = 1.518

Scan Rate (V/s) = 0.010
Sample Interval (V) = 0.001
Quiet Time (sec) = 2
Sensitivity (A/V) = 0.001
Comp R (ohm) = 5.5

Results:

Channel 1:

Potential/V, Current/A
1.098,   2.282e-4
1.099,   2.155e-4
1.100,   2.024e-4
1.101,   1.905e-4
1.102,   1.799e-4
1.103,   1.703e-4
1.104,   1.618e-4
1.105,   1.541e-4
1.106,   1.472e-4
1.107,   1.411e-4
1.108,   1.355e-4
1.109,   1.303e-4
1.110,   1.257e-4
1.111,   1.213e-4
1.112,   1.173e-4
1.113,   1.137e-4
1.114,   1.103e-4
1.115,   1.071e-4
1.116,   1.043e-4
1.117,   1.015e-4
1.118,   9.898e-5
1.119,   9.669e-5
1.120,   9.448e-5
1.121,   9.248e-5
1.122,   9.054e-5
1.123,   8.875e-5
1.124,   8.704e-5
1.125,   8.542e-5
1.126,   8.393e-5
1.127,   8.249e-5
1.128,   8.113e-5
1.129,   7.987e-5
1.130,   7.860e-5
1.131,   7.753e-5
1.132,   7.649e-5
1.133,   7.535e-5
1.134,   7.439e-5
1.135,   7.345e-5
1.136,   7.255e-5
1.137,   7.179e-5
1.138,   7.100e-5
1.139,   7.026e-5
1.140,   6.952e-5
1.141,   6.879e-5
1.142,   6.819e-5
1.143,   6.758e-5
1.144,   6.707e-5
1.145,   6.653e-5
1.146,   6.595e-5
1.147,   6.547e-5
1.148,   6.500e-5
1.149,   6.453e-5
1.150,   6.411e-5
1.151,   6.371e-5
1.152,   6.330e-5
1.153,   6.295e-5
1.154,   6.259e-5
1.155,   6.229e-5
1.156,   6.200e-5
1.157,   6.170e-5
1.158,   6.143e-5
1.159,   6.113e-5
1.160,   6.088e-5
1.161,   6.065e-5
1.162,   6.030e-5
1.163,   6.014e-5
1.164,   5.995e-5
1.165,   5.975e-5
1.166,   5.964e-5
1.167,   5.943e-5
1.168,   5.924e-5
1.169,   5.911e-5
1.170,   5.897e-5
1.171,   5.887e-5
1.172,   5.877e-5
1.173,   5.862e-5
1.174,   5.853e-5
1.175,   5.840e-5
1.176,   5.833e-5
1.177,   5.828e-5
1.178,   5.813e-5
1.179,   5.806e-5
1.180,   5.804e-5
1.181,   5.795e-5
1.182,   5.794e-5
1.183,   5.792e-5
1.184,   5.784e-5
1.185,   5.784e-5
1.186,   5.778e-5
1.187,   5.778e-5
1.188,   5.777e-5
1.189,   5.776e-5
1.190,   5.778e-5
1.191,   5.772e-5
1.192,   5.774e-5
1.193,   5.781e-5
1.194,   5.778e-5
1.195,   5.785e-5
1.196,   5.790e-5
1.197,   5.791e-5
1.198,   5.795e-5
1.199,   5.798e-5
1.200,   5.803e-5
1.201,   5.811e-5
1.202,   5.812e-5
1.203,   5.815e-5
1.204,   5.822e-5
1.205,   5.828e-5
1.206,   5.837e-5
1.207,   5.840e-5
1.208,   5.852e-5
1.209,   5.866e-5
1.210,   5.866e-5
1.211,   5.876e-5
1.212,   5.887e-5
1.213,   5.892e-5
1.214,   5.904e-5
1.215,   5.913e-5
1.216,   5.919e-5
1.217,   5.932e-5
1.218,   5.935e-5
1.219,   5.949e-5
1.220,   5.961e-5
1.221,   5.970e-5
1.222,   5.986e-5
1.223,   5.995e-5
1.224,   6.004e-5
1.225,   6.020e-5
1.226,   6.028e-5
1.227,   6.042e-5
1.228,   6.056e-5
1.229,   6.062e-5
1.230,   6.083e-5
1.231,   6.090e-5
1.232,   6.102e-5
1.233,   6.121e-5
1.234,   6.136e-5
1.235,   6.146e-5
1.236,   6.165e-5
1.237,   6.174e-5
1.238,   6.195e-5
1.239,   6.206e-5
1.240,   6.223e-5
1.241,   6.238e-5
1.242,   6.248e-5
1.243,   6.263e-5
1.244,   6.285e-5
1.245,   6.295e-5
1.246,   6.319e-5
1.247,   6.336e-5
1.248,   6.347e-5
1.249,   6.369e-5
1.250,   6.383e-5
1.251,   6.406e-5
1.252,   6.427e-5
1.253,   6.438e-5
1.254,   6.463e-5
1.255,   6.475e-5
1.256,   6.493e-5
1.257,   6.516e-5
1.258,   6.530e-5
1.259,   6.556e-5
1.260,   6.579e-5
1.261,   6.591e-5
1.262,   6.616e-5
1.263,   6.641e-5
1.264,   6.657e-5
1.265,   6.686e-5
1.266,   6.705e-5
1.267,   6.727e-5
1.268,   6.753e-5
1.269,   6.772e-5
1.270,   6.797e-5
1.271,   6.816e-5
1.272,   6.846e-5
1.273,   6.875e-5
1.274,   6.893e-5
1.275,   6.923e-5
1.276,   6.950e-5
1.277,   6.974e-5
1.278,   7.006e-5
1.279,   7.033e-5
1.280,   7.058e-5
1.281,   7.095e-5
1.282,   7.116e-5
1.283,   7.148e-5
1.284,   7.182e-5
1.285,   7.218e-5
1.286,   7.252e-5
1.287,   7.277e-5
1.288,   7.314e-5
1.289,   7.355e-5
1.290,   7.380e-5
1.291,   7.427e-5
1.292,   7.467e-5
1.293,   7.494e-5
1.294,   7.540e-5
1.295,   7.576e-5
1.296,   7.616e-5
1.297,   7.667e-5
1.298,   7.704e-5
1.299,   7.748e-5
1.300,   7.793e-5
1.301,   7.828e-5
1.302,   7.880e-5
1.303,   7.926e-5
1.304,   7.976e-5
1.305,   8.030e-5
1.306,   8.072e-5
1.307,   8.121e-5
1.308,   8.177e-5
1.309,   8.223e-5
1.310,   8.289e-5
1.311,   8.346e-5
1.312,   8.398e-5
1.313,   8.460e-5
1.314,   8.510e-5
1.315,   8.577e-5
1.316,   8.641e-5
1.317,   8.701e-5
1.318,   8.766e-5
1.319,   8.829e-5
1.320,   8.904e-5
1.321,   8.983e-5
1.322,   9.040e-5
1.323,   9.136e-5
1.324,   9.213e-5
1.325,   9.276e-5
1.326,   9.361e-5
1.327,   9.432e-5
1.328,   9.512e-5
1.329,   9.600e-5
1.330,   9.681e-5
1.331,   9.772e-5
1.332,   9.862e-5
1.333,   9.951e-5
1.334,   1.005e-4
1.335,   1.014e-4
1.336,   1.024e-4
1.337,   1.035e-4
1.338,   1.044e-4
1.339,   1.055e-4
1.340,   1.066e-4
1.341,   1.075e-4
1.342,   1.087e-4
1.343,   1.099e-4
1.344,   1.110e-4
1.345,   1.123e-4
1.346,   1.134e-4
1.347,   1.147e-4
1.348,   1.161e-4
1.349,   1.173e-4
1.350,   1.188e-4
1.351,   1.200e-4
1.352,   1.214e-4
1.353,   1.229e-4
1.354,   1.242e-4
1.355,   1.258e-4
1.356,   1.273e-4
1.357,   1.287e-4
1.358,   1.304e-4
1.359,   1.320e-4
1.360,   1.337e-4
1.361,   1.355e-4
1.362,   1.372e-4
1.363,   1.390e-4
1.364,   1.409e-4
1.365,   1.427e-4
1.366,   1.447e-4
1.367,   1.465e-4
1.368,   1.486e-4
1.369,   1.508e-4
1.370,   1.528e-4
1.371,   1.551e-4
1.372,   1.574e-4
1.373,   1.596e-4
1.374,   1.621e-4
1.375,   1.646e-4
1.376,   1.670e-4
1.377,   1.697e-4
1.378,   1.723e-4
1.379,   1.751e-4
1.380,   1.779e-4
1.381,   1.809e-4
1.382,   1.840e-4
1.383,   1.872e-4
1.384,   1.904e-4
1.385,   1.938e-4
1.386,   1.971e-4
1.387,   2.010e-4
1.388,   2.049e-4
1.389,   2.088e-4
1.390,   2.130e-4
1.391,   2.173e-4
1.392,   2.219e-4
1.393,   2.268e-4
1.394,   2.318e-4
1.395,   2.372e-4
1.396,   2.427e-4
1.397,   2.485e-4
1.398,   2.547e-4
1.399,   2.611e-4
1.400,   2.680e-4
1.401,   2.753e-4
1.402,   2.827e-4
1.403,   2.909e-4
1.404,   2.993e-4
1.405,   3.082e-4
1.406,   3.178e-4
1.407,   3.279e-4
1.408,   3.385e-4
1.409,   3.498e-4
1.410,   3.615e-4
1.411,   3.742e-4
1.412,   3.876e-4
1.413,   4.019e-4
1.414,   4.170e-4
1.415,   4.327e-4
1.416,   4.495e-4
1.417,   4.673e-4
1.418,   4.858e-4
1.419,   5.056e-4
1.420,   5.261e-4
1.421,   5.479e-4
1.422,   5.708e-4
1.423,   5.949e-4
1.424,   6.197e-4
1.425,   6.458e-4
1.426,   6.727e-4
1.427,   7.006e-4
1.428,   7.296e-4
1.429,   7.596e-4
1.430,   7.906e-4
1.431,   8.218e-4
1.432,   8.539e-4
1.433,   8.873e-4
1.434,   9.210e-4
1.435,   9.559e-4
1.436,   9.913e-4
1.437,   1.028e-3
1.438,   1.065e-3
1.439,   1.103e-3
1.440,   1.142e-3
1.441,   1.182e-3
1.442,   1.223e-3
1.443,   1.265e-3
1.444,   1.306e-3
1.445,   1.350e-3
1.446,   1.394e-3
1.447,   1.439e-3
1.448,   1.486e-3
1.449,   1.535e-3
1.450,   1.584e-3
1.451,   1.635e-3
1.452,   1.687e-3
1.453,   1.738e-3
1.454,   1.792e-3
1.455,   1.845e-3
1.456,   1.900e-3
1.457,   1.956e-3
1.458,   2.013e-3
1.459,   2.071e-3
1.460,   2.131e-3
1.461,   2.192e-3
1.462,   2.253e-3
1.463,   2.311e-3
1.464,   2.373e-3
1.465,   2.440e-3
1.466,   2.503e-3
1.467,   2.571e-3
1.468,   2.635e-3
1.469,   2.706e-3
1.470,   2.773e-3
1.471,   2.843e-3
1.472,   2.908e-3
1.473,   2.969e-3
1.474,   3.028e-3
1.475,   3.088e-3
1.476,   3.151e-3
1.477,   3.221e-3
1.478,   3.286e-3
1.479,   3.353e-3
1.480,   3.410e-3
1.481,   3.467e-3
1.482,   3.525e-3
1.483,   3.580e-3
1.484,   3.629e-3
1.485,   3.685e-3
1.486,   3.741e-3
1.487,   3.793e-3
1.488,   3.847e-3
1.489,   3.898e-3
1.490,   3.942e-3
1.491,   3.987e-3
1.492,   4.020e-3
1.493,   4.053e-3
1.494,   4.099e-3
1.495,   4.155e-3
1.496,   4.192e-3
1.497,   4.243e-3
1.498,   4.283e-3
1.499,   4.337e-3
1.500,   4.386e-3
1.501,   4.425e-3
1.502,   4.461e-3
1.503,   4.502e-3
1.504,   4.534e-3
1.505,   4.557e-3
1.506,   4.579e-3
1.507,   4.605e-3
1.508,   4.645e-3
1.509,   4.690e-3
1.510,   4.737e-3
1.511,   4.786e-3
1.512,   4.811e-3
1.513,   4.842e-3
1.514,   4.875e-3
1.515,   4.920e-3
1.516,   4.935e-3
1.517,   4.957e-3
1.518,   4.983e-3