File: Experimental Records and Raw Data/batch4/final500/B4_BEST_500_#6_Full-245mV.txt
Mar. 28, 2023   11:51:48
Linear Sweep Voltammetry
File: d:\current work\al_oer\electrochemical test data\batch 4\500\B4_BEST_500_#6_Full-245mV.txt
Data Source:  Experiment
Instrument Model:  CHI660E
Header:
Note:

Init E (V) = 1.136

Final E (V) = 1.593

Scan Rate (V/s) = 0.010
Sample Interval (V) = 0.001
Quiet Time (sec) = 2
Sensitivity (A/V) = 0.001
Comp R (ohm) = 5.3

Results:

Channel 1:

Potential/V, Current/A
1.136,   7.791e-4
1.137,   7.192e-4
1.138,   6.664e-4
1.139,   6.182e-4
1.140,   5.754e-4
1.141,   5.376e-4
1.142,   5.042e-4
1.143,   4.743e-4
1.144,   4.478e-4
1.145,   4.239e-4
1.146,   4.025e-4
1.147,   3.829e-4
1.148,   3.650e-4
1.149,   3.489e-4
1.150,   3.339e-4
1.151,   3.202e-4
1.152,   3.076e-4
1.153,   2.959e-4
1.154,   2.853e-4
1.155,   2.757e-4
1.156,   2.667e-4
1.157,   2.583e-4
1.158,   2.502e-4
1.159,   2.426e-4
1.160,   2.356e-4
1.161,   2.290e-4
1.162,   2.229e-4
1.163,   2.172e-4
1.164,   2.120e-4
1.165,   2.072e-4
1.166,   2.028e-4
1.167,   1.984e-4
1.168,   1.944e-4
1.169,   1.906e-4
1.170,   1.869e-4
1.171,   1.834e-4
1.172,   1.802e-4
1.173,   1.770e-4
1.174,   1.740e-4
1.175,   1.714e-4
1.176,   1.687e-4
1.177,   1.663e-4
1.178,   1.639e-4
1.179,   1.618e-4
1.180,   1.596e-4
1.181,   1.576e-4
1.182,   1.555e-4
1.183,   1.539e-4
1.184,   1.521e-4
1.185,   1.506e-4
1.186,   1.490e-4
1.187,   1.474e-4
1.188,   1.461e-4
1.189,   1.447e-4
1.190,   1.433e-4
1.191,   1.421e-4
1.192,   1.409e-4
1.193,   1.397e-4
1.194,   1.387e-4
1.195,   1.378e-4
1.196,   1.370e-4
1.197,   1.362e-4
1.198,   1.354e-4
1.199,   1.345e-4
1.200,   1.337e-4
1.201,   1.332e-4
1.202,   1.324e-4
1.203,   1.317e-4
1.204,   1.313e-4
1.205,   1.307e-4
1.206,   1.301e-4
1.207,   1.296e-4
1.208,   1.292e-4
1.209,   1.287e-4
1.210,   1.281e-4
1.211,   1.277e-4
1.212,   1.274e-4
1.213,   1.270e-4
1.214,   1.267e-4
1.215,   1.265e-4
1.216,   1.260e-4
1.217,   1.258e-4
1.218,   1.257e-4
1.219,   1.253e-4
1.220,   1.251e-4
1.221,   1.249e-4
1.222,   1.246e-4
1.223,   1.245e-4
1.224,   1.242e-4
1.225,   1.241e-4
1.226,   1.240e-4
1.227,   1.239e-4
1.228,   1.238e-4
1.229,   1.236e-4
1.230,   1.235e-4
1.231,   1.235e-4
1.232,   1.233e-4
1.233,   1.235e-4
1.234,   1.235e-4
1.235,   1.233e-4
1.236,   1.233e-4
1.237,   1.235e-4
1.238,   1.234e-4
1.239,   1.236e-4
1.240,   1.236e-4
1.241,   1.236e-4
1.242,   1.236e-4
1.243,   1.236e-4
1.244,   1.239e-4
1.245,   1.238e-4
1.246,   1.240e-4
1.247,   1.241e-4
1.248,   1.240e-4
1.249,   1.242e-4
1.250,   1.243e-4
1.251,   1.243e-4
1.252,   1.244e-4
1.253,   1.245e-4
1.254,   1.247e-4
1.255,   1.249e-4
1.256,   1.251e-4
1.257,   1.252e-4
1.258,   1.253e-4
1.259,   1.254e-4
1.260,   1.256e-4
1.261,   1.259e-4
1.262,   1.260e-4
1.263,   1.261e-4
1.264,   1.262e-4
1.265,   1.264e-4
1.266,   1.266e-4
1.267,   1.266e-4
1.268,   1.269e-4
1.269,   1.270e-4
1.270,   1.272e-4
1.271,   1.274e-4
1.272,   1.275e-4
1.273,   1.276e-4
1.274,   1.278e-4
1.275,   1.279e-4
1.276,   1.282e-4
1.277,   1.284e-4
1.278,   1.286e-4
1.279,   1.287e-4
1.280,   1.288e-4
1.281,   1.289e-4
1.282,   1.292e-4
1.283,   1.293e-4
1.284,   1.295e-4
1.285,   1.297e-4
1.286,   1.298e-4
1.287,   1.299e-4
1.288,   1.300e-4
1.289,   1.301e-4
1.290,   1.302e-4
1.291,   1.305e-4
1.292,   1.306e-4
1.293,   1.308e-4
1.294,   1.310e-4
1.295,   1.313e-4
1.296,   1.313e-4
1.297,   1.316e-4
1.298,   1.318e-4
1.299,   1.318e-4
1.300,   1.320e-4
1.301,   1.321e-4
1.302,   1.324e-4
1.303,   1.325e-4
1.304,   1.327e-4
1.305,   1.329e-4
1.306,   1.331e-4
1.307,   1.332e-4
1.308,   1.334e-4
1.309,   1.335e-4
1.310,   1.339e-4
1.311,   1.342e-4
1.312,   1.343e-4
1.313,   1.347e-4
1.314,   1.350e-4
1.315,   1.350e-4
1.316,   1.354e-4
1.317,   1.358e-4
1.318,   1.360e-4
1.319,   1.364e-4
1.320,   1.366e-4
1.321,   1.370e-4
1.322,   1.374e-4
1.323,   1.376e-4
1.324,   1.379e-4
1.325,   1.380e-4
1.326,   1.384e-4
1.327,   1.388e-4
1.328,   1.389e-4
1.329,   1.394e-4
1.330,   1.399e-4
1.331,   1.402e-4
1.332,   1.407e-4
1.333,   1.409e-4
1.334,   1.413e-4
1.335,   1.415e-4
1.336,   1.420e-4
1.337,   1.426e-4
1.338,   1.430e-4
1.339,   1.433e-4
1.340,   1.439e-4
1.341,   1.442e-4
1.342,   1.448e-4
1.343,   1.453e-4
1.344,   1.454e-4
1.345,   1.460e-4
1.346,   1.465e-4
1.347,   1.470e-4
1.348,   1.477e-4
1.349,   1.484e-4
1.350,   1.490e-4
1.351,   1.496e-4
1.352,   1.502e-4
1.353,   1.509e-4
1.354,   1.514e-4
1.355,   1.521e-4
1.356,   1.528e-4
1.357,   1.534e-4
1.358,   1.542e-4
1.359,   1.551e-4
1.360,   1.557e-4
1.361,   1.565e-4
1.362,   1.576e-4
1.363,   1.580e-4
1.364,   1.587e-4
1.365,   1.595e-4
1.366,   1.603e-4
1.367,   1.613e-4
1.368,   1.621e-4
1.369,   1.632e-4
1.370,   1.640e-4
1.371,   1.651e-4
1.372,   1.662e-4
1.373,   1.671e-4
1.374,   1.683e-4
1.375,   1.696e-4
1.376,   1.705e-4
1.377,   1.718e-4
1.378,   1.730e-4
1.379,   1.739e-4
1.380,   1.755e-4
1.381,   1.770e-4
1.382,   1.783e-4
1.383,   1.798e-4
1.384,   1.813e-4
1.385,   1.829e-4
1.386,   1.845e-4
1.387,   1.862e-4
1.388,   1.883e-4
1.389,   1.898e-4
1.390,   1.920e-4
1.391,   1.939e-4
1.392,   1.957e-4
1.393,   1.980e-4
1.394,   2.004e-4
1.395,   2.024e-4
1.396,   2.046e-4
1.397,   2.068e-4
1.398,   2.094e-4
1.399,   2.122e-4
1.400,   2.152e-4
1.401,   2.181e-4
1.402,   2.211e-4
1.403,   2.243e-4
1.404,   2.276e-4
1.405,   2.308e-4
1.406,   2.345e-4
1.407,   2.383e-4
1.408,   2.420e-4
1.409,   2.460e-4
1.410,   2.504e-4
1.411,   2.549e-4
1.412,   2.597e-4
1.413,   2.646e-4
1.414,   2.694e-4
1.415,   2.749e-4
1.416,   2.806e-4
1.417,   2.866e-4
1.418,   2.929e-4
1.419,   2.996e-4
1.420,   3.067e-4
1.421,   3.138e-4
1.422,   3.215e-4
1.423,   3.296e-4
1.424,   3.380e-4
1.425,   3.469e-4
1.426,   3.564e-4
1.427,   3.664e-4
1.428,   3.774e-4
1.429,   3.884e-4
1.430,   4.003e-4
1.431,   4.126e-4
1.432,   4.254e-4
1.433,   4.391e-4
1.434,   4.533e-4
1.435,   4.684e-4
1.436,   4.846e-4
1.437,   5.013e-4
1.438,   5.187e-4
1.439,   5.372e-4
1.440,   5.564e-4
1.441,   5.766e-4
1.442,   5.979e-4
1.443,   6.199e-4
1.444,   6.433e-4
1.445,   6.668e-4
1.446,   6.913e-4
1.447,   7.175e-4
1.448,   7.441e-4
1.449,   7.724e-4
1.450,   8.018e-4
1.451,   8.321e-4
1.452,   8.632e-4
1.453,   8.958e-4
1.454,   9.298e-4
1.455,   9.642e-4
1.456,   9.997e-4
1.457,   1.037e-3
1.458,   1.076e-3
1.459,   1.116e-3
1.460,   1.157e-3
1.461,   1.199e-3
1.462,   1.241e-3
1.463,   1.283e-3
1.464,   1.328e-3
1.465,   1.376e-3
1.466,   1.424e-3
1.467,   1.474e-3
1.468,   1.524e-3
1.469,   1.576e-3
1.470,   1.629e-3
1.471,   1.683e-3
1.472,   1.738e-3
1.473,   1.795e-3
1.474,   1.853e-3
1.475,   1.913e-3
1.476,   1.974e-3
1.477,   2.035e-3
1.478,   2.097e-3
1.479,   2.161e-3
1.480,   2.225e-3
1.481,   2.291e-3
1.482,   2.358e-3
1.483,   2.426e-3
1.484,   2.496e-3
1.485,   2.568e-3
1.486,   2.641e-3
1.487,   2.712e-3
1.488,   2.784e-3
1.489,   2.859e-3
1.490,   2.933e-3
1.491,   3.010e-3
1.492,   3.087e-3
1.493,   3.164e-3
1.494,   3.241e-3
1.495,   3.320e-3
1.496,   3.401e-3
1.497,   3.482e-3
1.498,   3.566e-3
1.499,   3.647e-3
1.500,   3.731e-3
1.501,   3.814e-3
1.502,   3.897e-3
1.503,   3.980e-3
1.504,   4.066e-3
1.505,   4.152e-3
1.506,   4.236e-3
1.507,   4.322e-3
1.508,   4.411e-3
1.509,   4.494e-3
1.510,   4.572e-3
1.511,   4.654e-3
1.512,   4.740e-3
1.513,   4.825e-3
1.514,   4.916e-3
1.515,   5.004e-3
1.516,   5.084e-3
1.517,   5.167e-3
1.518,   5.251e-3
1.519,   5.337e-3
1.520,   5.417e-3
1.521,   5.509e-3
1.522,   5.591e-3
1.523,   5.667e-3
1.524,   5.750e-3
1.525,   5.839e-3
1.526,   5.919e-3
1.527,   6.004e-3
1.528,   6.084e-3
1.529,   6.154e-3
1.530,   6.242e-3
1.531,   6.347e-3
1.532,   6.671e-3
1.533,   6.792e-3
1.534,   6.849e-3
1.535,   6.953e-3
1.536,   7.024e-3
1.537,   7.100e-3
1.538,   7.160e-3
1.539,   7.234e-3
1.540,   7.325e-3
1.541,   7.394e-3
1.542,   7.464e-3
1.543,   7.535e-3
1.544,   7.589e-3
1.545,   7.645e-3
1.546,   7.717e-3
1.547,   7.787e-3
1.548,   7.857e-3
1.549,   7.927e-3
1.550,   7.999e-3
1.551,   8.058e-3
1.552,   8.103e-3
1.553,   8.171e-3
1.554,   8.242e-3
1.555,   8.296e-3
1.556,   8.357e-3
1.557,   8.432e-3
1.558,   8.505e-3
1.559,   8.562e-3
1.560,   8.585e-3
1.561,   8.621e-3
1.562,   8.670e-3
1.563,   8.711e-3
1.564,   8.777e-3
1.565,   8.820e-3
1.566,   8.842e-3
1.567,   8.855e-3
1.568,   8.864e-3
1.569,   8.936e-3
1.570,   9.135e-3
1.571,   9.598e-3
1.572,   9.576e-3
1.573,   9.550e-3
1.574,   9.578e-3
1.575,   9.626e-3
1.576,   9.623e-3
1.577,   9.620e-3
1.578,   9.621e-3
1.579,   9.640e-3
1.580,   9.643e-3
1.581,   9.698e-3
1.582,   9.709e-3
1.583,   9.776e-3
1.584,   9.845e-3
1.585,   9.895e-3
1.586,   1.006e-2
1.587,   1.006e-2
1.588,   1.006e-2
1.589,   1.006e-2
1.590,   1.006e-2
1.591,   1.006e-2
1.592,   1.006e-2
1.593,   1.006e-2