File: Experimental Records and Raw Data/batch4/final500/B4_BEST_500_#4_Full-199mV.txt
Mar. 29, 2023   11:35:05
Linear Sweep Voltammetry
File: d:\current work\al_oer\electrochemical test data\batch 4\500\B4_BEST_500_#4_Full-199mV.txt
Data Source:  Experiment
Instrument Model:  CHI660E
Header:
Note:

Init E (V) = 1.099

Final E (V) = 1.672

Scan Rate (V/s) = 0.010
Sample Interval (V) = 0.001
Quiet Time (sec) = 2
Sensitivity (A/V) = 0.001
Comp R (ohm) = 5.0

Results:

Channel 1:
Ep = 1.263V
ip = 9.902e-3A
Ah = 3.711e-2C

Potential/V, Current/A
1.099,   1.697e-4
1.100,   2.051e-4
1.101,   1.982e-4
1.102,   1.899e-4
1.103,   1.839e-4
1.104,   1.784e-4
1.105,   1.732e-4
1.106,   1.696e-4
1.107,   1.660e-4
1.108,   1.622e-4
1.109,   1.597e-4
1.110,   1.568e-4
1.111,   1.548e-4
1.112,   1.526e-4
1.113,   1.508e-4
1.114,   1.496e-4
1.115,   1.475e-4
1.116,   1.463e-4
1.117,   1.454e-4
1.118,   1.438e-4
1.119,   1.439e-4
1.120,   1.433e-4
1.121,   1.414e-4
1.122,   1.413e-4
1.123,   1.402e-4
1.124,   1.396e-4
1.125,   1.396e-4
1.126,   1.388e-4
1.127,   1.385e-4
1.128,   1.382e-4
1.129,   1.378e-4
1.130,   1.381e-4
1.131,   1.372e-4
1.132,   1.374e-4
1.133,   1.378e-4
1.134,   1.367e-4
1.135,   1.372e-4
1.136,   1.373e-4
1.137,   1.367e-4
1.138,   1.374e-4
1.139,   1.373e-4
1.140,   1.373e-4
1.141,   1.378e-4
1.142,   1.373e-4
1.143,   1.378e-4
1.144,   1.381e-4
1.145,   1.383e-4
1.146,   1.387e-4
1.147,   1.383e-4
1.148,   1.390e-4
1.149,   1.395e-4
1.150,   1.389e-4
1.151,   1.398e-4
1.152,   1.404e-4
1.153,   1.400e-4
1.154,   1.410e-4
1.155,   1.406e-4
1.156,   1.413e-4
1.157,   1.420e-4
1.158,   1.423e-4
1.159,   1.425e-4
1.160,   1.429e-4
1.161,   1.431e-4
1.162,   1.441e-4
1.163,   1.437e-4
1.164,   1.447e-4
1.165,   1.454e-4
1.166,   1.449e-4
1.167,   1.459e-4
1.168,   1.465e-4
1.169,   1.464e-4
1.170,   1.477e-4
1.171,   1.480e-4
1.172,   1.479e-4
1.173,   1.490e-4
1.174,   1.487e-4
1.175,   1.496e-4
1.176,   1.502e-4
1.177,   1.505e-4
1.178,   1.517e-4
1.179,   1.515e-4
1.180,   1.517e-4
1.181,   1.526e-4
1.182,   1.522e-4
1.183,   1.541e-4
1.184,   1.545e-4
1.185,   1.541e-4
1.186,   1.553e-4
1.187,   1.553e-4
1.188,   1.554e-4
1.189,   1.567e-4
1.190,   1.568e-4
1.191,   1.573e-4
1.192,   1.577e-4
1.193,   1.579e-4
1.194,   1.589e-4
1.195,   1.586e-4
1.196,   1.595e-4
1.197,   1.604e-4
1.198,   1.598e-4
1.199,   1.607e-4
1.200,   1.608e-4
1.201,   1.609e-4
1.202,   1.621e-4
1.203,   1.619e-4
1.204,   1.624e-4
1.205,   1.630e-4
1.206,   1.626e-4
1.207,   1.634e-4
1.208,   1.635e-4
1.209,   1.641e-4
1.210,   1.646e-4
1.211,   1.640e-4
1.212,   1.646e-4
1.213,   1.651e-4
1.214,   1.644e-4
1.215,   1.655e-4
1.216,   1.658e-4
1.217,   1.652e-4
1.218,   1.661e-4
1.219,   1.654e-4
1.220,   1.660e-4
1.221,   1.664e-4
1.222,   1.659e-4
1.223,   1.666e-4
1.224,   1.667e-4
1.225,   1.663e-4
1.226,   1.666e-4
1.227,   1.664e-4
1.228,   1.668e-4
1.229,   1.674e-4
1.230,   1.659e-4
1.231,   1.669e-4
1.232,   1.667e-4
1.233,   1.662e-4
1.234,   1.669e-4
1.235,   1.669e-4
1.236,   1.664e-4
1.237,   1.668e-4
1.238,   1.657e-4
1.239,   1.664e-4
1.240,   1.661e-4
1.241,   1.660e-4
1.242,   1.665e-4
1.243,   1.653e-4
1.244,   1.657e-4
1.245,   1.660e-4
1.246,   1.646e-4
1.247,   1.656e-4
1.248,   1.657e-4
1.249,   1.647e-4
1.250,   1.652e-4
1.251,   1.645e-4
1.252,   1.642e-4
1.253,   1.647e-4
1.254,   1.638e-4
1.255,   1.641e-4
1.256,   1.636e-4
1.257,   1.632e-4
1.258,   1.637e-4
1.259,   1.628e-4
1.260,   1.631e-4
1.261,   1.638e-4
1.262,   1.620e-4
1.263,   1.626e-4
1.264,   1.623e-4
1.265,   1.616e-4
1.266,   1.620e-4
1.267,   1.617e-4
1.268,   1.610e-4
1.269,   1.615e-4
1.270,   1.606e-4
1.271,   1.608e-4
1.272,   1.607e-4
1.273,   1.608e-4
1.274,   1.608e-4
1.275,   1.596e-4
1.276,   1.599e-4
1.277,   1.601e-4
1.278,   1.590e-4
1.279,   1.595e-4
1.280,   1.595e-4
1.281,   1.585e-4
1.282,   1.593e-4
1.283,   1.583e-4
1.284,   1.582e-4
1.285,   1.588e-4
1.286,   1.589e-4
1.287,   1.582e-4
1.288,   1.581e-4
1.289,   1.578e-4
1.290,   1.584e-4
1.291,   1.572e-4
1.292,   1.577e-4
1.293,   1.580e-4
1.294,   1.569e-4
1.295,   1.576e-4
1.296,   1.576e-4
1.297,   1.570e-4
1.298,   1.577e-4
1.299,   1.574e-4
1.300,   1.572e-4
1.301,   1.574e-4
1.302,   1.568e-4
1.303,   1.574e-4
1.304,   1.571e-4
1.305,   1.572e-4
1.306,   1.574e-4
1.307,   1.570e-4
1.308,   1.571e-4
1.309,   1.577e-4
1.310,   1.568e-4
1.311,   1.580e-4
1.312,   1.581e-4
1.313,   1.573e-4
1.314,   1.579e-4
1.315,   1.577e-4
1.316,   1.577e-4
1.317,   1.586e-4
1.318,   1.578e-4
1.319,   1.586e-4
1.320,   1.585e-4
1.321,   1.583e-4
1.322,   1.590e-4
1.323,   1.589e-4
1.324,   1.604e-4
1.325,   1.606e-4
1.326,   1.596e-4
1.327,   1.603e-4
1.328,   1.605e-4
1.329,   1.601e-4
1.330,   1.612e-4
1.331,   1.613e-4
1.332,   1.613e-4
1.333,   1.625e-4
1.334,   1.621e-4
1.335,   1.626e-4
1.336,   1.630e-4
1.337,   1.639e-4
1.338,   1.645e-4
1.339,   1.642e-4
1.340,   1.650e-4
1.341,   1.659e-4
1.342,   1.656e-4
1.343,   1.669e-4
1.344,   1.672e-4
1.345,   1.675e-4
1.346,   1.687e-4
1.347,   1.690e-4
1.348,   1.695e-4
1.349,   1.710e-4
1.350,   1.711e-4
1.351,   1.724e-4
1.352,   1.731e-4
1.353,   1.737e-4
1.354,   1.753e-4
1.355,   1.753e-4
1.356,   1.767e-4
1.357,   1.784e-4
1.358,   1.786e-4
1.359,   1.804e-4
1.360,   1.814e-4
1.361,   1.827e-4
1.362,   1.847e-4
1.363,   1.859e-4
1.364,   1.873e-4
1.365,   1.896e-4
1.366,   1.904e-4
1.367,   1.929e-4
1.368,   1.948e-4
1.369,   1.965e-4
1.370,   1.994e-4
1.371,   2.012e-4
1.372,   2.040e-4
1.373,   2.070e-4
1.374,   2.091e-4
1.375,   2.134e-4
1.376,   2.164e-4
1.377,   2.193e-4
1.378,   2.238e-4
1.379,   2.271e-4
1.380,   2.315e-4
1.381,   2.367e-4
1.382,   2.408e-4
1.383,   2.464e-4
1.384,   2.521e-4
1.385,   2.577e-4
1.386,   2.647e-4
1.387,   2.705e-4
1.388,   2.788e-4
1.389,   2.873e-4
1.390,   2.942e-4
1.391,   3.042e-4
1.392,   3.136e-4
1.393,   3.231e-4
1.394,   3.352e-4
1.395,   3.468e-4
1.396,   3.593e-4
1.397,   3.737e-4
1.398,   3.874e-4
1.399,   4.032e-4
1.400,   4.191e-4
1.401,   4.372e-4
1.402,   4.579e-4
1.403,   4.786e-4
1.404,   4.992e-4
1.405,   5.207e-4
1.406,   5.469e-4
1.407,   5.766e-4
1.408,   6.000e-4
1.409,   6.314e-4
1.410,   6.671e-4
1.411,   6.938e-4
1.412,   7.383e-4
1.413,   7.692e-4
1.414,   8.192e-4
1.415,   8.533e-4
1.416,   9.096e-4
1.417,   9.472e-4
1.418,   1.011e-3
1.419,   1.058e-3
1.420,   1.117e-3
1.421,   1.189e-3
1.422,   1.244e-3
1.423,   1.313e-3
1.424,   1.397e-3
1.425,   1.472e-3
1.426,   1.548e-3
1.427,   1.635e-3
1.428,   1.733e-3
1.429,   1.835e-3
1.430,   1.935e-3
1.431,   2.042e-3
1.432,   2.155e-3
1.433,   2.274e-3
1.434,   2.405e-3
1.435,   2.541e-3
1.436,   2.685e-3
1.437,   2.838e-3
1.438,   2.998e-3
1.439,   3.167e-3
1.440,   3.346e-3
1.441,   3.533e-3
1.442,   3.733e-3
1.443,   3.943e-3
1.444,   4.164e-3
1.445,   4.397e-3
1.446,   4.643e-3
1.447,   4.907e-3
1.448,   5.184e-3
1.449,   5.478e-3
1.450,   5.785e-3
1.451,   6.107e-3
1.452,   6.451e-3
1.453,   6.815e-3
1.454,   7.198e-3
1.455,   7.599e-3
1.456,   8.022e-3
1.457,   8.465e-3
1.458,   8.930e-3
1.459,   9.417e-3
1.460,   9.933e-3
1.461,   1.006e-2
1.462,   1.006e-2
1.463,   1.006e-2
1.464,   1.006e-2
1.465,   1.006e-2
1.466,   1.006e-2
1.467,   1.006e-2
1.468,   1.006e-2
1.469,   1.006e-2
1.470,   1.006e-2
1.471,   1.006e-2
1.472,   1.006e-2
1.473,   1.006e-2
1.474,   1.006e-2
1.475,   1.006e-2
1.476,   1.006e-2
1.477,   1.006e-2
1.478,   1.006e-2
1.479,   1.006e-2
1.480,   1.006e-2
1.481,   1.006e-2
1.482,   1.006e-2
1.483,   1.006e-2
1.484,   1.006e-2
1.485,   1.006e-2
1.486,   1.006e-2
1.487,   1.006e-2
1.488,   1.006e-2
1.489,   1.006e-2
1.490,   1.006e-2
1.491,   1.006e-2
1.492,   1.006e-2
1.493,   1.006e-2
1.494,   1.006e-2
1.495,   1.006e-2
1.496,   1.006e-2
1.497,   1.006e-2
1.498,   1.006e-2
1.499,   1.006e-2
1.500,   1.006e-2
1.501,   1.006e-2
1.502,   1.006e-2
1.503,   1.006e-2
1.504,   1.006e-2
1.505,   1.006e-2
1.506,   1.006e-2
1.507,   1.006e-2
1.508,   1.006e-2
1.509,   1.006e-2
1.510,   1.006e-2
1.511,   1.006e-2
1.512,   1.006e-2
1.513,   1.006e-2
1.514,   1.006e-2
1.515,   1.006e-2
1.516,   1.006e-2
1.517,   1.006e-2
1.518,   1.006e-2
1.519,   1.006e-2
1.520,   1.006e-2
1.521,   1.006e-2
1.522,   1.006e-2
1.523,   1.006e-2
1.524,   1.006e-2
1.525,   1.006e-2
1.526,   1.006e-2
1.527,   1.006e-2
1.528,   1.006e-2
1.529,   1.006e-2
1.530,   1.006e-2
1.531,   1.006e-2
1.532,   1.006e-2
1.533,   1.006e-2
1.534,   1.006e-2
1.535,   1.006e-2
1.536,   1.006e-2
1.537,   1.006e-2
1.538,   1.006e-2
1.539,   1.006e-2
1.540,   1.006e-2
1.541,   1.006e-2
1.542,   1.006e-2
1.543,   1.006e-2
1.544,   1.006e-2
1.545,   1.006e-2
1.546,   1.006e-2
1.547,   1.006e-2
1.548,   1.006e-2
1.549,   1.006e-2
1.550,   1.006e-2
1.551,   1.006e-2
1.552,   1.006e-2
1.553,   1.006e-2
1.554,   1.006e-2
1.555,   1.006e-2
1.556,   1.006e-2
1.557,   1.006e-2
1.558,   1.006e-2
1.559,   1.006e-2
1.560,   1.006e-2
1.561,   1.006e-2
1.562,   1.006e-2
1.563,   1.006e-2
1.564,   1.006e-2
1.565,   1.006e-2
1.566,   1.006e-2
1.567,   1.006e-2
1.568,   1.006e-2
1.569,   1.006e-2
1.570,   1.006e-2
1.571,   1.006e-2
1.572,   1.006e-2
1.573,   1.006e-2
1.574,   1.006e-2
1.575,   1.006e-2
1.576,   1.006e-2
1.577,   1.006e-2
1.578,   1.006e-2
1.579,   1.006e-2
1.580,   1.006e-2
1.581,   1.006e-2
1.582,   1.006e-2
1.583,   1.006e-2
1.584,   1.006e-2
1.585,   1.006e-2
1.586,   1.006e-2
1.587,   1.006e-2
1.588,   1.006e-2
1.589,   1.006e-2
1.590,   1.006e-2
1.591,   1.006e-2
1.592,   1.006e-2
1.593,   1.006e-2
1.594,   1.006e-2
1.595,   1.006e-2
1.596,   1.006e-2
1.597,   1.006e-2
1.598,   1.006e-2
1.599,   1.006e-2
1.600,   1.006e-2
1.601,   1.006e-2
1.602,   1.006e-2
1.603,   1.006e-2
1.604,   1.006e-2
1.605,   1.006e-2
1.606,   1.006e-2
1.607,   1.006e-2
1.608,   1.006e-2
1.609,   1.006e-2
1.610,   1.006e-2
1.611,   1.006e-2
1.612,   1.006e-2
1.613,   1.006e-2
1.614,   1.006e-2
1.615,   1.006e-2
1.616,   1.006e-2
1.617,   1.006e-2
1.618,   1.006e-2
1.619,   1.006e-2
1.620,   1.006e-2
1.621,   1.006e-2
1.622,   1.006e-2
1.623,   1.006e-2
1.624,   1.006e-2
1.625,   1.006e-2
1.626,   1.006e-2
1.627,   1.006e-2
1.628,   1.006e-2
1.629,   1.006e-2
1.630,   1.006e-2
1.631,   1.006e-2
1.632,   1.006e-2
1.633,   1.006e-2
1.634,   1.006e-2
1.635,   1.006e-2
1.636,   1.006e-2
1.637,   1.006e-2
1.638,   1.006e-2
1.639,   1.006e-2
1.640,   1.006e-2
1.641,   1.006e-2
1.642,   1.006e-2
1.643,   1.006e-2
1.644,   1.006e-2
1.645,   1.006e-2
1.646,   1.006e-2
1.647,   1.006e-2
1.648,   1.006e-2
1.649,   1.006e-2
1.650,   1.006e-2
1.651,   1.006e-2
1.652,   1.006e-2
1.653,   1.006e-2
1.654,   1.006e-2
1.655,   1.006e-2
1.656,   1.006e-2
1.657,   1.006e-2
1.658,   1.006e-2
1.659,   1.006e-2
1.660,   1.006e-2
1.661,   1.006e-2
1.662,   1.006e-2
1.663,   1.006e-2
1.664,   1.006e-2
1.665,   1.006e-2
1.666,   1.006e-2
1.667,   1.006e-2
1.668,   1.006e-2
1.669,   1.006e-2
1.670,   1.006e-2
1.671,   1.006e-2
1.672,   1.006e-2