File: Experimental Records and Raw Data/batch4/final500/B4_BEST_500_#1_High_Quality(#17)-226mV.txt
Mar. 29, 2023   12:06:02
Linear Sweep Voltammetry
File: d:\current work\al_oer\electrochemical test data\batch 4\500\B4_BEST_500_#1_High_Quality(#17)-226mV.txt
Data Source:  Experiment
Instrument Model:  CHI660E
Header:
Note:

Init E (V) = 1.107

Final E (V) = 1.539

Scan Rate (V/s) = 0.010
Sample Interval (V) = 0.001
Quiet Time (sec) = 2
Sensitivity (A/V) = 0.001
Comp R (ohm) = 5.8

Results:

Channel 1:

Potential/V, Current/A
1.107,   1.753e-4
1.108,   1.760e-4
1.109,   1.668e-4
1.110,   1.580e-4
1.111,   1.504e-4
1.112,   1.438e-4
1.113,   1.376e-4
1.114,   1.323e-4
1.115,   1.274e-4
1.116,   1.230e-4
1.117,   1.191e-4
1.118,   1.154e-4
1.119,   1.125e-4
1.120,   1.093e-4
1.121,   1.066e-4
1.122,   1.041e-4
1.123,   1.018e-4
1.124,   9.976e-5
1.125,   9.783e-5
1.126,   9.571e-5
1.127,   9.424e-5
1.128,   9.299e-5
1.129,   9.144e-5
1.130,   9.010e-5
1.131,   8.851e-5
1.132,   8.751e-5
1.133,   8.647e-5
1.134,   8.531e-5
1.135,   8.442e-5
1.136,   8.351e-5
1.137,   8.262e-5
1.138,   8.188e-5
1.139,   8.107e-5
1.140,   8.043e-5
1.141,   7.976e-5
1.142,   7.867e-5
1.143,   7.862e-5
1.144,   7.797e-5
1.145,   7.714e-5
1.146,   7.724e-5
1.147,   7.671e-5
1.148,   7.611e-5
1.149,   7.580e-5
1.150,   7.532e-5
1.151,   7.490e-5
1.152,   7.450e-5
1.153,   7.415e-5
1.154,   7.395e-5
1.155,   7.360e-5
1.156,   7.349e-5
1.157,   7.328e-5
1.158,   7.287e-5
1.159,   7.278e-5
1.160,   7.250e-5
1.161,   7.215e-5
1.162,   7.219e-5
1.163,   7.203e-5
1.164,   7.179e-5
1.165,   7.171e-5
1.166,   7.167e-5
1.167,   7.160e-5
1.168,   7.136e-5
1.169,   7.120e-5
1.170,   7.130e-5
1.171,   7.109e-5
1.172,   7.106e-5
1.173,   7.106e-5
1.174,   7.066e-5
1.175,   7.098e-5
1.176,   7.078e-5
1.177,   7.064e-5
1.178,   7.084e-5
1.179,   7.073e-5
1.180,   7.061e-5
1.181,   7.078e-5
1.182,   7.058e-5
1.183,   7.052e-5
1.184,   7.064e-5
1.185,   7.062e-5
1.186,   7.073e-5
1.187,   7.065e-5
1.188,   7.064e-5
1.189,   7.069e-5
1.190,   7.049e-5
1.191,   7.070e-5
1.192,   7.074e-5
1.193,   7.065e-5
1.194,   7.081e-5
1.195,   7.059e-5
1.196,   7.067e-5
1.197,   7.062e-5
1.198,   7.066e-5
1.199,   7.097e-5
1.200,   7.107e-5
1.201,   7.082e-5
1.202,   7.104e-5
1.203,   7.088e-5
1.204,   7.100e-5
1.205,   7.106e-5
1.206,   7.085e-5
1.207,   7.086e-5
1.208,   7.107e-5
1.209,   7.118e-5
1.210,   7.117e-5
1.211,   7.106e-5
1.212,   7.139e-5
1.213,   7.127e-5
1.214,   7.123e-5
1.215,   7.133e-5
1.216,   7.135e-5
1.217,   7.162e-5
1.218,   7.162e-5
1.219,   7.125e-5
1.220,   7.123e-5
1.221,   7.174e-5
1.222,   7.148e-5
1.223,   7.173e-5
1.224,   7.166e-5
1.225,   7.158e-5
1.226,   7.185e-5
1.227,   7.151e-5
1.228,   7.186e-5
1.229,   7.192e-5
1.230,   7.164e-5
1.231,   7.164e-5
1.232,   7.207e-5
1.233,   7.181e-5
1.234,   7.192e-5
1.235,   7.160e-5
1.236,   7.192e-5
1.237,   7.217e-5
1.238,   7.190e-5
1.239,   7.189e-5
1.240,   7.213e-5
1.241,   7.219e-5
1.242,   7.239e-5
1.243,   7.215e-5
1.244,   7.202e-5
1.245,   7.246e-5
1.246,   7.229e-5
1.247,   7.226e-5
1.248,   7.219e-5
1.249,   7.232e-5
1.250,   7.249e-5
1.251,   7.230e-5
1.252,   7.257e-5
1.253,   7.260e-5
1.254,   7.229e-5
1.255,   7.256e-5
1.256,   7.265e-5
1.257,   7.264e-5
1.258,   7.276e-5
1.259,   7.261e-5
1.260,   7.297e-5
1.261,   7.306e-5
1.262,   7.284e-5
1.263,   7.293e-5
1.264,   7.288e-5
1.265,   7.299e-5
1.266,   7.320e-5
1.267,   7.290e-5
1.268,   7.320e-5
1.269,   7.344e-5
1.270,   7.295e-5
1.271,   7.324e-5
1.272,   7.337e-5
1.273,   7.326e-5
1.274,   7.346e-5
1.275,   7.343e-5
1.276,   7.345e-5
1.277,   7.345e-5
1.278,   7.368e-5
1.279,   7.388e-5
1.280,   7.376e-5
1.281,   7.373e-5
1.282,   7.390e-5
1.283,   7.389e-5
1.284,   7.405e-5
1.285,   7.431e-5
1.286,   7.404e-5
1.287,   7.431e-5
1.288,   7.425e-5
1.289,   7.425e-5
1.290,   7.466e-5
1.291,   7.459e-5
1.292,   7.462e-5
1.293,   7.482e-5
1.294,   7.476e-5
1.295,   7.480e-5
1.296,   7.469e-5
1.297,   7.495e-5
1.298,   7.490e-5
1.299,   7.529e-5
1.300,   7.561e-5
1.301,   7.573e-5
1.302,   7.547e-5
1.303,   7.569e-5
1.304,   7.587e-5
1.305,   7.577e-5
1.306,   7.614e-5
1.307,   7.618e-5
1.308,   7.637e-5
1.309,   7.642e-5
1.310,   7.649e-5
1.311,   7.679e-5
1.312,   7.684e-5
1.313,   7.679e-5
1.314,   7.716e-5
1.315,   7.704e-5
1.316,   7.732e-5
1.317,   7.771e-5
1.318,   7.749e-5
1.319,   7.789e-5
1.320,   7.795e-5
1.321,   7.781e-5
1.322,   7.821e-5
1.323,   7.831e-5
1.324,   7.852e-5
1.325,   7.881e-5
1.326,   7.875e-5
1.327,   7.933e-5
1.328,   7.943e-5
1.329,   7.939e-5
1.330,   7.975e-5
1.331,   8.026e-5
1.332,   8.159e-5
1.333,   8.176e-5
1.334,   8.146e-5
1.335,   8.294e-5
1.336,   8.313e-5
1.337,   8.298e-5
1.338,   8.305e-5
1.339,   8.288e-5
1.340,   8.291e-5
1.341,   8.321e-5
1.342,   8.299e-5
1.343,   8.350e-5
1.344,   8.393e-5
1.345,   8.427e-5
1.346,   8.470e-5
1.347,   8.449e-5
1.348,   8.476e-5
1.349,   8.540e-5
1.350,   8.545e-5
1.351,   8.580e-5
1.352,   8.654e-5
1.353,   8.653e-5
1.354,   8.708e-5
1.355,   8.741e-5
1.356,   8.783e-5
1.357,   8.824e-5
1.358,   8.862e-5
1.359,   8.912e-5
1.360,   8.946e-5
1.361,   8.980e-5
1.362,   9.031e-5
1.363,   9.063e-5
1.364,   9.143e-5
1.365,   9.221e-5
1.366,   9.232e-5
1.367,   9.322e-5
1.368,   9.345e-5
1.369,   9.441e-5
1.370,   9.529e-5
1.371,   9.584e-5
1.372,   9.648e-5
1.373,   9.749e-5
1.374,   9.789e-5
1.375,   9.893e-5
1.376,   9.974e-5
1.377,   1.005e-4
1.378,   1.017e-4
1.379,   1.025e-4
1.380,   1.037e-4
1.381,   1.049e-4
1.382,   1.056e-4
1.383,   1.072e-4
1.384,   1.086e-4
1.385,   1.096e-4
1.386,   1.111e-4
1.387,   1.122e-4
1.388,   1.145e-4
1.389,   1.163e-4
1.390,   1.178e-4
1.391,   1.196e-4
1.392,   1.214e-4
1.393,   1.236e-4
1.394,   1.260e-4
1.395,   1.278e-4
1.396,   1.308e-4
1.397,   1.334e-4
1.398,   1.357e-4
1.399,   1.390e-4
1.400,   1.419e-4
1.401,   1.451e-4
1.402,   1.488e-4
1.403,   1.524e-4
1.404,   1.567e-4
1.405,   1.611e-4
1.406,   1.655e-4
1.407,   1.702e-4
1.408,   1.752e-4
1.409,   1.808e-4
1.410,   1.868e-4
1.411,   1.927e-4
1.412,   1.994e-4
1.413,   2.067e-4
1.414,   2.140e-4
1.415,   2.225e-4
1.416,   2.312e-4
1.417,   2.403e-4
1.418,   2.506e-4
1.419,   2.610e-4
1.420,   2.724e-4
1.421,   2.847e-4
1.422,   2.981e-4
1.423,   3.125e-4
1.424,   3.275e-4
1.425,   3.436e-4
1.426,   3.610e-4
1.427,   3.789e-4
1.428,   3.994e-4
1.429,   4.217e-4
1.430,   4.431e-4
1.431,   4.682e-4
1.432,   4.939e-4
1.433,   5.225e-4
1.434,   5.523e-4
1.435,   5.836e-4
1.436,   6.183e-4
1.437,   6.557e-4
1.438,   6.958e-4
1.439,   7.376e-4
1.440,   7.794e-4
1.441,   8.245e-4
1.442,   8.726e-4
1.443,   9.258e-4
1.444,   9.806e-4
1.445,   1.039e-3
1.446,   1.103e-3
1.447,   1.166e-3
1.448,   1.234e-3
1.449,   1.303e-3
1.450,   1.374e-3
1.451,   1.451e-3
1.452,   1.530e-3
1.453,   1.606e-3
1.454,   1.692e-3
1.455,   1.771e-3
1.456,   1.852e-3
1.457,   1.941e-3
1.458,   2.027e-3
1.459,   2.115e-3
1.460,   2.204e-3
1.461,   2.280e-3
1.462,   2.364e-3
1.463,   2.445e-3
1.464,   2.527e-3
1.465,   2.595e-3
1.466,   2.671e-3
1.467,   2.737e-3
1.468,   2.836e-3
1.469,   2.915e-3
1.470,   2.987e-3
1.471,   3.050e-3
1.472,   3.089e-3
1.473,   3.097e-3
1.474,   3.158e-3
1.475,   3.252e-3
1.476,   3.352e-3
1.477,   3.433e-3
1.478,   3.504e-3
1.479,   3.578e-3
1.480,   3.686e-3
1.481,   3.794e-3
1.482,   3.905e-3
1.483,   3.981e-3
1.484,   4.055e-3
1.485,   4.172e-3
1.486,   4.283e-3
1.487,   4.355e-3
1.488,   4.431e-3
1.489,   4.569e-3
1.490,   4.675e-3
1.491,   4.712e-3
1.492,   4.813e-3
1.493,   4.992e-3
1.494,   5.130e-3
1.495,   5.201e-3
1.496,   5.327e-3
1.497,   5.451e-3
1.498,   5.499e-3
1.499,   5.545e-3
1.500,   5.677e-3
1.501,   5.793e-3
1.502,   5.898e-3
1.503,   6.019e-3
1.504,   6.133e-3
1.505,   6.271e-3
1.506,   6.400e-3
1.507,   6.505e-3
1.508,   6.575e-3
1.509,   6.615e-3
1.510,   6.763e-3
1.511,   6.924e-3
1.512,   7.061e-3
1.513,   7.233e-3
1.514,   7.224e-3
1.515,   7.225e-3
1.516,   7.429e-3
1.517,   7.706e-3
1.518,   7.809e-3
1.519,   7.923e-3
1.520,   8.064e-3
1.521,   8.145e-3
1.522,   8.268e-3
1.523,   8.625e-3
1.524,   8.654e-3
1.525,   8.657e-3
1.526,   8.807e-3
1.527,   8.937e-3
1.528,   8.951e-3
1.529,   8.993e-3
1.530,   9.193e-3
1.531,   9.454e-3
1.532,   9.545e-3
1.533,   9.613e-3
1.534,   9.659e-3
1.535,   9.743e-3
1.536,   9.694e-3
1.537,   9.794e-3
1.538,   1.006e-2
1.539,   1.006e-2