File: Experimental Records and Raw Data/batch4/final500/B4_BEST_500_#3_Full-216mV.txt
Mar. 28, 2023   11:58:01
Linear Sweep Voltammetry
File: d:\current work\al_oer\electrochemical test data\batch 4\500\B4_BEST_500_#3_Full-216mV.txt
Data Source:  Experiment
Instrument Model:  CHI660E
Header:
Note:

Init E (V) = 1.099

Final E (V) = 1.698

Scan Rate (V/s) = 0.010
Sample Interval (V) = 0.001
Quiet Time (sec) = 2
Sensitivity (A/V) = 0.001
Comp R (ohm) = 5.0

Results:

Channel 1:
Ep = 1.343V
ip = 5.658e-3A
Ah = 8.901e-2C

Potential/V, Current/A
1.099,   5.251e-4
1.100,   4.868e-4
1.101,   4.507e-4
1.102,   4.186e-4
1.103,   3.895e-4
1.104,   3.644e-4
1.105,   3.428e-4
1.106,   3.228e-4
1.107,   3.039e-4
1.108,   2.877e-4
1.109,   2.736e-4
1.110,   2.599e-4
1.111,   2.478e-4
1.112,   2.364e-4
1.113,   2.255e-4
1.114,   2.160e-4
1.115,   2.074e-4
1.116,   1.994e-4
1.117,   1.916e-4
1.118,   1.845e-4
1.119,   1.784e-4
1.120,   1.730e-4
1.121,   1.675e-4
1.122,   1.621e-4
1.123,   1.574e-4
1.124,   1.531e-4
1.125,   1.490e-4
1.126,   1.450e-4
1.127,   1.412e-4
1.128,   1.378e-4
1.129,   1.348e-4
1.130,   1.317e-4
1.131,   1.290e-4
1.132,   1.263e-4
1.133,   1.238e-4
1.134,   1.214e-4
1.135,   1.193e-4
1.136,   1.174e-4
1.137,   1.155e-4
1.138,   1.137e-4
1.139,   1.118e-4
1.140,   1.102e-4
1.141,   1.086e-4
1.142,   1.070e-4
1.143,   1.055e-4
1.144,   1.041e-4
1.145,   1.028e-4
1.146,   1.015e-4
1.147,   1.004e-4
1.148,   9.952e-5
1.149,   9.848e-5
1.150,   9.726e-5
1.151,   9.617e-5
1.152,   9.538e-5
1.153,   9.460e-5
1.154,   9.380e-5
1.155,   9.295e-5
1.156,   9.213e-5
1.157,   9.140e-5
1.158,   9.071e-5
1.159,   9.011e-5
1.160,   8.948e-5
1.161,   8.896e-5
1.162,   8.840e-5
1.163,   8.775e-5
1.164,   8.724e-5
1.165,   8.695e-5
1.166,   8.644e-5
1.167,   8.606e-5
1.168,   8.582e-5
1.169,   8.540e-5
1.170,   8.523e-5
1.171,   8.493e-5
1.172,   8.454e-5
1.173,   8.415e-5
1.174,   8.368e-5
1.175,   8.348e-5
1.176,   8.330e-5
1.177,   8.323e-5
1.178,   8.283e-5
1.179,   8.243e-5
1.180,   8.216e-5
1.181,   8.208e-5
1.182,   8.179e-5
1.183,   8.164e-5
1.184,   8.156e-5
1.185,   8.152e-5
1.186,   8.137e-5
1.187,   8.124e-5
1.188,   8.122e-5
1.189,   8.119e-5
1.190,   8.110e-5
1.191,   8.113e-5
1.192,   8.098e-5
1.193,   8.089e-5
1.194,   8.091e-5
1.195,   8.083e-5
1.196,   8.077e-5
1.197,   8.080e-5
1.198,   8.070e-5
1.199,   8.078e-5
1.200,   8.057e-5
1.201,   8.062e-5
1.202,   8.071e-5
1.203,   8.066e-5
1.204,   8.060e-5
1.205,   8.060e-5
1.206,   8.067e-5
1.207,   8.075e-5
1.208,   8.054e-5
1.209,   8.067e-5
1.210,   8.080e-5
1.211,   8.068e-5
1.212,   8.081e-5
1.213,   8.098e-5
1.214,   8.094e-5
1.215,   8.105e-5
1.216,   8.105e-5
1.217,   8.115e-5
1.218,   8.118e-5
1.219,   8.114e-5
1.220,   8.127e-5
1.221,   8.130e-5
1.222,   8.132e-5
1.223,   8.143e-5
1.224,   8.155e-5
1.225,   8.166e-5
1.226,   8.182e-5
1.227,   8.181e-5
1.228,   8.196e-5
1.229,   8.216e-5
1.230,   8.214e-5
1.231,   8.227e-5
1.232,   8.236e-5
1.233,   8.239e-5
1.234,   8.246e-5
1.235,   8.264e-5
1.236,   8.277e-5
1.237,   8.293e-5
1.238,   8.308e-5
1.239,   8.330e-5
1.240,   8.324e-5
1.241,   8.329e-5
1.242,   8.335e-5
1.243,   8.328e-5
1.244,   8.334e-5
1.245,   8.350e-5
1.246,   8.345e-5
1.247,   8.369e-5
1.248,   8.374e-5
1.249,   8.376e-5
1.250,   8.385e-5
1.251,   8.415e-5
1.252,   8.433e-5
1.253,   8.433e-5
1.254,   8.430e-5
1.255,   8.455e-5
1.256,   8.457e-5
1.257,   8.467e-5
1.258,   8.491e-5
1.259,   8.486e-5
1.260,   8.512e-5
1.261,   8.528e-5
1.262,   8.525e-5
1.263,   8.552e-5
1.264,   8.566e-5
1.265,   8.574e-5
1.266,   8.591e-5
1.267,   8.613e-5
1.268,   8.652e-5
1.269,   8.657e-5
1.270,   8.672e-5
1.271,   8.678e-5
1.272,   8.682e-5
1.273,   8.702e-5
1.274,   8.724e-5
1.275,   8.733e-5
1.276,   8.742e-5
1.277,   8.753e-5
1.278,   8.746e-5
1.279,   8.768e-5
1.280,   8.780e-5
1.281,   8.788e-5
1.282,   8.813e-5
1.283,   8.837e-5
1.284,   8.877e-5
1.285,   8.906e-5
1.286,   8.927e-5
1.287,   8.939e-5
1.288,   8.946e-5
1.289,   8.967e-5
1.290,   9.000e-5
1.291,   9.014e-5
1.292,   9.051e-5
1.293,   9.077e-5
1.294,   9.090e-5
1.295,   9.121e-5
1.296,   9.149e-5
1.297,   9.164e-5
1.298,   9.184e-5
1.299,   9.201e-5
1.300,   9.239e-5
1.301,   9.270e-5
1.302,   9.282e-5
1.303,   9.330e-5
1.304,   9.354e-5
1.305,   9.380e-5
1.306,   9.404e-5
1.307,   9.416e-5
1.308,   9.462e-5
1.309,   9.504e-5
1.310,   9.528e-5
1.311,   9.554e-5
1.312,   9.596e-5
1.313,   9.628e-5
1.314,   9.681e-5
1.315,   9.708e-5
1.316,   9.753e-5
1.317,   9.795e-5
1.318,   9.841e-5
1.319,   9.887e-5
1.320,   9.917e-5
1.321,   9.971e-5
1.322,   1.002e-4
1.323,   1.005e-4
1.324,   1.011e-4
1.325,   1.019e-4
1.326,   1.021e-4
1.327,   1.027e-4
1.328,   1.032e-4
1.329,   1.037e-4
1.330,   1.044e-4
1.331,   1.049e-4
1.332,   1.056e-4
1.333,   1.063e-4
1.334,   1.070e-4
1.335,   1.077e-4
1.336,   1.082e-4
1.337,   1.091e-4
1.338,   1.100e-4
1.339,   1.104e-4
1.340,   1.114e-4
1.341,   1.121e-4
1.342,   1.128e-4
1.343,   1.139e-4
1.344,   1.149e-4
1.345,   1.158e-4
1.346,   1.168e-4
1.347,   1.177e-4
1.348,   1.188e-4
1.349,   1.199e-4
1.350,   1.210e-4
1.351,   1.223e-4
1.352,   1.235e-4
1.353,   1.248e-4
1.354,   1.261e-4
1.355,   1.273e-4
1.356,   1.288e-4
1.357,   1.304e-4
1.358,   1.320e-4
1.359,   1.337e-4
1.360,   1.352e-4
1.361,   1.370e-4
1.362,   1.390e-4
1.363,   1.409e-4
1.364,   1.431e-4
1.365,   1.452e-4
1.366,   1.474e-4
1.367,   1.499e-4
1.368,   1.522e-4
1.369,   1.550e-4
1.370,   1.578e-4
1.371,   1.603e-4
1.372,   1.634e-4
1.373,   1.665e-4
1.374,   1.694e-4
1.375,   1.731e-4
1.376,   1.768e-4
1.377,   1.805e-4
1.378,   1.844e-4
1.379,   1.884e-4
1.380,   1.930e-4
1.381,   1.976e-4
1.382,   2.024e-4
1.383,   2.077e-4
1.384,   2.133e-4
1.385,   2.191e-4
1.386,   2.254e-4
1.387,   2.318e-4
1.388,   2.386e-4
1.389,   2.458e-4
1.390,   2.532e-4
1.391,   2.612e-4
1.392,   2.698e-4
1.393,   2.786e-4
1.394,   2.881e-4
1.395,   2.980e-4
1.396,   3.087e-4
1.397,   3.199e-4
1.398,   3.315e-4
1.399,   3.441e-4
1.400,   3.565e-4
1.401,   3.700e-4
1.402,   3.842e-4
1.403,   3.992e-4
1.404,   4.148e-4
1.405,   4.308e-4
1.406,   4.478e-4
1.407,   4.658e-4
1.408,   4.847e-4
1.409,   5.040e-4
1.410,   5.243e-4
1.411,   5.457e-4
1.412,   5.682e-4
1.413,   5.913e-4
1.414,   6.152e-4
1.415,   6.397e-4
1.416,   6.652e-4
1.417,   6.919e-4
1.418,   7.193e-4
1.419,   7.477e-4
1.420,   7.778e-4
1.421,   8.089e-4
1.422,   8.404e-4
1.423,   8.730e-4
1.424,   9.064e-4
1.425,   9.411e-4
1.426,   9.769e-4
1.427,   1.014e-3
1.428,   1.052e-3
1.429,   1.090e-3
1.430,   1.130e-3
1.431,   1.172e-3
1.432,   1.214e-3
1.433,   1.257e-3
1.434,   1.303e-3
1.435,   1.348e-3
1.436,   1.392e-3
1.437,   1.439e-3
1.438,   1.486e-3
1.439,   1.534e-3
1.440,   1.585e-3
1.441,   1.637e-3
1.442,   1.690e-3
1.443,   1.742e-3
1.444,   1.796e-3
1.445,   1.851e-3
1.446,   1.904e-3
1.447,   1.959e-3
1.448,   2.017e-3
1.449,   2.076e-3
1.450,   2.134e-3
1.451,   2.191e-3
1.452,   2.250e-3
1.453,   2.310e-3
1.454,   2.370e-3
1.455,   2.429e-3
1.456,   2.487e-3
1.457,   2.551e-3
1.458,   2.614e-3
1.459,   2.679e-3
1.460,   2.741e-3
1.461,   2.806e-3
1.462,   2.871e-3
1.463,   2.933e-3
1.464,   2.997e-3
1.465,   3.063e-3
1.466,   3.129e-3
1.467,   3.192e-3
1.468,   3.257e-3
1.469,   3.322e-3
1.470,   3.385e-3
1.471,   3.445e-3
1.472,   3.508e-3
1.473,   3.570e-3
1.474,   3.631e-3
1.475,   3.683e-3
1.476,   3.742e-3
1.477,   3.806e-3
1.478,   3.871e-3
1.479,   3.933e-3
1.480,   3.989e-3
1.481,   4.052e-3
1.482,   4.106e-3
1.483,   4.159e-3
1.484,   4.216e-3
1.485,   4.274e-3
1.486,   4.325e-3
1.487,   4.377e-3
1.488,   4.434e-3
1.489,   4.484e-3
1.490,   4.529e-3
1.491,   4.573e-3
1.492,   4.609e-3
1.493,   4.657e-3
1.494,   4.705e-3
1.495,   4.751e-3
1.496,   4.793e-3
1.497,   4.823e-3
1.498,   4.863e-3
1.499,   4.899e-3
1.500,   4.939e-3
1.501,   4.977e-3
1.502,   5.010e-3
1.503,   5.042e-3
1.504,   5.072e-3
1.505,   5.108e-3
1.506,   5.141e-3
1.507,   5.172e-3
1.508,   5.201e-3
1.509,   5.224e-3
1.510,   5.251e-3
1.511,   5.280e-3
1.512,   5.309e-3
1.513,   5.361e-3
1.514,   5.394e-3
1.515,   5.414e-3
1.516,   5.438e-3
1.517,   5.458e-3
1.518,   5.478e-3
1.519,   5.490e-3
1.520,   5.498e-3
1.521,   5.513e-3
1.522,   5.533e-3
1.523,   5.549e-3
1.524,   5.562e-3
1.525,   5.566e-3
1.526,   5.590e-3
1.527,   5.606e-3
1.528,   5.618e-3
1.529,   5.645e-3
1.530,   5.652e-3
1.531,   5.653e-3
1.532,   5.668e-3
1.533,   5.677e-3
1.534,   5.686e-3
1.535,   5.682e-3
1.536,   5.682e-3
1.537,   5.741e-3
1.538,   5.769e-3
1.539,   5.782e-3
1.540,   5.808e-3
1.541,   5.820e-3
1.542,   5.813e-3
1.543,   5.813e-3
1.544,   5.819e-3
1.545,   5.816e-3
1.546,   5.815e-3
1.547,   5.816e-3
1.548,   5.804e-3
1.549,   5.790e-3
1.550,   5.784e-3
1.551,   5.773e-3
1.552,   5.773e-3
1.553,   5.771e-3
1.554,   5.758e-3
1.555,   5.746e-3
1.556,   5.787e-3
1.557,   5.795e-3
1.558,   5.795e-3
1.559,   5.795e-3
1.560,   5.786e-3
1.561,   5.777e-3
1.562,   5.762e-3
1.563,   5.755e-3
1.564,   5.750e-3
1.565,   5.748e-3
1.566,   5.745e-3
1.567,   5.734e-3
1.568,   5.727e-3
1.569,   5.723e-3
1.570,   5.708e-3
1.571,   5.681e-3
1.572,   5.683e-3
1.573,   5.682e-3
1.574,   5.650e-3
1.575,   5.653e-3
1.576,   5.653e-3
1.577,   5.644e-3
1.578,   5.628e-3
1.579,   5.619e-3
1.580,   5.607e-3
1.581,   5.610e-3
1.582,   5.613e-3
1.583,   5.608e-3
1.584,   5.595e-3
1.585,   5.578e-3
1.586,   5.575e-3
1.587,   5.590e-3
1.588,   5.595e-3
1.589,   5.598e-3
1.590,   5.589e-3
1.591,   5.574e-3
1.592,   5.557e-3
1.593,   5.530e-3
1.594,   5.507e-3
1.595,   5.483e-3
1.596,   5.472e-3
1.597,   5.478e-3
1.598,   5.475e-3
1.599,   5.462e-3
1.600,   5.439e-3
1.601,   5.435e-3
1.602,   5.429e-3
1.603,   5.412e-3
1.604,   5.409e-3
1.605,   5.403e-3
1.606,   5.393e-3
1.607,   5.377e-3
1.608,   5.367e-3
1.609,   5.349e-3
1.610,   5.347e-3
1.611,   5.331e-3
1.612,   5.313e-3
1.613,   5.279e-3
1.614,   5.256e-3
1.615,   5.254e-3
1.616,   5.240e-3
1.617,   5.220e-3
1.618,   5.212e-3
1.619,   5.206e-3
1.620,   5.194e-3
1.621,   5.189e-3
1.622,   5.179e-3
1.623,   5.170e-3
1.624,   5.157e-3
1.625,   5.149e-3
1.626,   5.143e-3
1.627,   5.131e-3
1.628,   5.113e-3
1.629,   5.100e-3
1.630,   5.075e-3
1.631,   5.062e-3
1.632,   5.059e-3
1.633,   5.048e-3
1.634,   5.031e-3
1.635,   5.015e-3
1.636,   4.997e-3
1.637,   4.994e-3
1.638,   4.980e-3
1.639,   4.969e-3
1.640,   4.962e-3
1.641,   4.930e-3
1.642,   4.928e-3
1.643,   4.911e-3
1.644,   4.894e-3
1.645,   4.864e-3
1.646,   4.856e-3
1.647,   4.860e-3
1.648,   4.853e-3
1.649,   4.809e-3
1.650,   4.796e-3
1.651,   4.807e-3
1.652,   4.806e-3
1.653,   4.804e-3
1.654,   4.782e-3
1.655,   4.770e-3
1.656,   4.768e-3
1.657,   4.755e-3
1.658,   4.749e-3
1.659,   4.731e-3
1.660,   4.720e-3
1.661,   4.691e-3
1.662,   4.670e-3
1.663,   4.646e-3
1.664,   4.625e-3
1.665,   4.617e-3
1.666,   4.590e-3
1.667,   4.576e-3
1.668,   4.535e-3
1.669,   4.532e-3
1.670,   4.536e-3
1.671,   4.517e-3
1.672,   4.493e-3
1.673,   4.495e-3
1.674,   4.459e-3
1.675,   4.438e-3
1.676,   4.435e-3
1.677,   4.435e-3
1.678,   4.418e-3
1.679,   4.392e-3
1.680,   4.373e-3
1.681,   4.356e-3
1.682,   4.335e-3
1.683,   4.326e-3
1.684,   4.320e-3
1.685,   4.297e-3
1.686,   4.276e-3
1.687,   4.271e-3
1.688,   4.264e-3
1.689,   4.242e-3
1.690,   4.231e-3
1.691,   4.227e-3
1.692,   4.215e-3
1.693,   4.198e-3
1.694,   4.182e-3
1.695,   4.169e-3
1.696,   4.148e-3
1.697,   4.143e-3
1.698,   4.125e-3