File: Experimental Records and Raw Data/batch4/final500/B4_BEST_500_#7_Full-255mV.txt
Mar. 28, 2023   12:40:44
Linear Sweep Voltammetry
File: d:\current work\al_oer\electrochemical test data\batch 4\500\B4_BEST_500_#7_Full-255mV.txt
Data Source:  Experiment
Instrument Model:  CHI660E
Header:
Note:

Init E (V) = 1.098

Final E (V) = 1.535

Scan Rate (V/s) = 0.010
Sample Interval (V) = 0.001
Quiet Time (sec) = 2
Sensitivity (A/V) = 0.001
Comp R (ohm) = 5.5

Results:

Channel 1:

Potential/V, Current/A
1.098,   1.836e-4
1.099,   1.725e-4
1.100,   1.621e-4
1.101,   1.528e-4
1.102,   1.443e-4
1.103,   1.367e-4
1.104,   1.299e-4
1.105,   1.237e-4
1.106,   1.183e-4
1.107,   1.131e-4
1.108,   1.084e-4
1.109,   1.041e-4
1.110,   1.004e-4
1.111,   9.690e-5
1.112,   9.373e-5
1.113,   9.080e-5
1.114,   8.795e-5
1.115,   8.538e-5
1.116,   8.291e-5
1.117,   8.064e-5
1.118,   7.851e-5
1.119,   7.659e-5
1.120,   7.467e-5
1.121,   7.291e-5
1.122,   7.126e-5
1.123,   6.975e-5
1.124,   6.831e-5
1.125,   6.697e-5
1.126,   6.574e-5
1.127,   6.450e-5
1.128,   6.330e-5
1.129,   6.222e-5
1.130,   6.117e-5
1.131,   6.022e-5
1.132,   5.935e-5
1.133,   5.841e-5
1.134,   5.764e-5
1.135,   5.691e-5
1.136,   5.619e-5
1.137,   5.547e-5
1.138,   5.481e-5
1.139,   5.420e-5
1.140,   5.358e-5
1.141,   5.301e-5
1.142,   5.247e-5
1.143,   5.187e-5
1.144,   5.141e-5
1.145,   5.095e-5
1.146,   5.053e-5
1.147,   5.008e-5
1.148,   4.969e-5
1.149,   4.925e-5
1.150,   4.887e-5
1.151,   4.855e-5
1.152,   4.820e-5
1.153,   4.788e-5
1.154,   4.757e-5
1.155,   4.733e-5
1.156,   4.704e-5
1.157,   4.674e-5
1.158,   4.656e-5
1.159,   4.627e-5
1.160,   4.601e-5
1.161,   4.580e-5
1.162,   4.557e-5
1.163,   4.538e-5
1.164,   4.517e-5
1.165,   4.492e-5
1.166,   4.473e-5
1.167,   4.459e-5
1.168,   4.447e-5
1.169,   4.430e-5
1.170,   4.414e-5
1.171,   4.405e-5
1.172,   4.392e-5
1.173,   4.379e-5
1.174,   4.371e-5
1.175,   4.358e-5
1.176,   4.343e-5
1.177,   4.337e-5
1.178,   4.329e-5
1.179,   4.327e-5
1.180,   4.319e-5
1.181,   4.313e-5
1.182,   4.310e-5
1.183,   4.307e-5
1.184,   4.300e-5
1.185,   4.297e-5
1.186,   4.289e-5
1.187,   4.284e-5
1.188,   4.280e-5
1.189,   4.279e-5
1.190,   4.277e-5
1.191,   4.270e-5
1.192,   4.270e-5
1.193,   4.268e-5
1.194,   4.263e-5
1.195,   4.267e-5
1.196,   4.268e-5
1.197,   4.271e-5
1.198,   4.270e-5
1.199,   4.270e-5
1.200,   4.271e-5
1.201,   4.271e-5
1.202,   4.271e-5
1.203,   4.272e-5
1.204,   4.273e-5
1.205,   4.287e-5
1.206,   4.292e-5
1.207,   4.292e-5
1.208,   4.297e-5
1.209,   4.299e-5
1.210,   4.299e-5
1.211,   4.303e-5
1.212,   4.309e-5
1.213,   4.307e-5
1.214,   4.314e-5
1.215,   4.317e-5
1.216,   4.323e-5
1.217,   4.328e-5
1.218,   4.327e-5
1.219,   4.331e-5
1.220,   4.339e-5
1.221,   4.340e-5
1.222,   4.347e-5
1.223,   4.349e-5
1.224,   4.360e-5
1.225,   4.368e-5
1.226,   4.371e-5
1.227,   4.380e-5
1.228,   4.384e-5
1.229,   4.387e-5
1.230,   4.396e-5
1.231,   4.403e-5
1.232,   4.408e-5
1.233,   4.420e-5
1.234,   4.425e-5
1.235,   4.432e-5
1.236,   4.437e-5
1.237,   4.440e-5
1.238,   4.450e-5
1.239,   4.455e-5
1.240,   4.463e-5
1.241,   4.474e-5
1.242,   4.478e-5
1.243,   4.490e-5
1.244,   4.498e-5
1.245,   4.503e-5
1.246,   4.512e-5
1.247,   4.517e-5
1.248,   4.521e-5
1.249,   4.529e-5
1.250,   4.536e-5
1.251,   4.542e-5
1.252,   4.550e-5
1.253,   4.557e-5
1.254,   4.561e-5
1.255,   4.567e-5
1.256,   4.577e-5
1.257,   4.588e-5
1.258,   4.596e-5
1.259,   4.603e-5
1.260,   4.611e-5
1.261,   4.614e-5
1.262,   4.626e-5
1.263,   4.631e-5
1.264,   4.640e-5
1.265,   4.648e-5
1.266,   4.658e-5
1.267,   4.670e-5
1.268,   4.684e-5
1.269,   4.692e-5
1.270,   4.703e-5
1.271,   4.713e-5
1.272,   4.723e-5
1.273,   4.739e-5
1.274,   4.748e-5
1.275,   4.760e-5
1.276,   4.773e-5
1.277,   4.778e-5
1.278,   4.789e-5
1.279,   4.795e-5
1.280,   4.807e-5
1.281,   4.820e-5
1.282,   4.826e-5
1.283,   4.841e-5
1.284,   4.856e-5
1.285,   4.869e-5
1.286,   4.882e-5
1.287,   4.891e-5
1.288,   4.905e-5
1.289,   4.918e-5
1.290,   4.932e-5
1.291,   4.954e-5
1.292,   4.969e-5
1.293,   4.979e-5
1.294,   4.992e-5
1.295,   4.999e-5
1.296,   5.013e-5
1.297,   5.030e-5
1.298,   5.040e-5
1.299,   5.058e-5
1.300,   5.072e-5
1.301,   5.094e-5
1.302,   5.123e-5
1.303,   5.134e-5
1.304,   5.151e-5
1.305,   5.174e-5
1.306,   5.186e-5
1.307,   5.208e-5
1.308,   5.226e-5
1.309,   5.251e-5
1.310,   5.286e-5
1.311,   5.306e-5
1.312,   5.325e-5
1.313,   5.353e-5
1.314,   5.382e-5
1.315,   5.400e-5
1.316,   5.425e-5
1.317,   5.453e-5
1.318,   5.470e-5
1.319,   5.492e-5
1.320,   5.518e-5
1.321,   5.549e-5
1.322,   5.566e-5
1.323,   5.598e-5
1.324,   5.623e-5
1.325,   5.640e-5
1.326,   5.664e-5
1.327,   5.694e-5
1.328,   5.721e-5
1.329,   5.760e-5
1.330,   5.787e-5
1.331,   5.827e-5
1.332,   5.857e-5
1.333,   5.888e-5
1.334,   5.940e-5
1.335,   5.968e-5
1.336,   6.003e-5
1.337,   6.039e-5
1.338,   6.070e-5
1.339,   6.115e-5
1.340,   6.152e-5
1.341,   6.184e-5
1.342,   6.230e-5
1.343,   6.273e-5
1.344,   6.314e-5
1.345,   6.365e-5
1.346,   6.410e-5
1.347,   6.454e-5
1.348,   6.507e-5
1.349,   6.560e-5
1.350,   6.605e-5
1.351,   6.652e-5
1.352,   6.703e-5
1.353,   6.760e-5
1.354,   6.822e-5
1.355,   6.891e-5
1.356,   6.951e-5
1.357,   7.008e-5
1.358,   7.080e-5
1.359,   7.146e-5
1.360,   7.211e-5
1.361,   7.285e-5
1.362,   7.354e-5
1.363,   7.421e-5
1.364,   7.498e-5
1.365,   7.580e-5
1.366,   7.669e-5
1.367,   7.759e-5
1.368,   7.866e-5
1.369,   7.961e-5
1.370,   8.060e-5
1.371,   8.199e-5
1.372,   8.320e-5
1.373,   8.396e-5
1.374,   8.504e-5
1.375,   8.622e-5
1.376,   8.760e-5
1.377,   8.862e-5
1.378,   9.000e-5
1.379,   9.145e-5
1.380,   9.298e-5
1.381,   9.450e-5
1.382,   9.621e-5
1.383,   9.798e-5
1.384,   9.991e-5
1.385,   1.019e-4
1.386,   1.039e-4
1.387,   1.062e-4
1.388,   1.084e-4
1.389,   1.105e-4
1.390,   1.131e-4
1.391,   1.159e-4
1.392,   1.186e-4
1.393,   1.216e-4
1.394,   1.247e-4
1.395,   1.280e-4
1.396,   1.314e-4
1.397,   1.351e-4
1.398,   1.390e-4
1.399,   1.430e-4
1.400,   1.473e-4
1.401,   1.518e-4
1.402,   1.565e-4
1.403,   1.615e-4
1.404,   1.669e-4
1.405,   1.723e-4
1.406,   1.779e-4
1.407,   1.839e-4
1.408,   1.901e-4
1.409,   1.969e-4
1.410,   2.038e-4
1.411,   2.111e-4
1.412,   2.185e-4
1.413,   2.260e-4
1.414,   2.342e-4
1.415,   2.428e-4
1.416,   2.515e-4
1.417,   2.606e-4
1.418,   2.702e-4
1.419,   2.803e-4
1.420,   2.907e-4
1.421,   3.013e-4
1.422,   3.125e-4
1.423,   3.242e-4
1.424,   3.361e-4
1.425,   3.485e-4
1.426,   3.613e-4
1.427,   3.747e-4
1.428,   3.886e-4
1.429,   4.031e-4
1.430,   4.179e-4
1.431,   4.329e-4
1.432,   4.484e-4
1.433,   4.645e-4
1.434,   4.811e-4
1.435,   4.981e-4
1.436,   5.157e-4
1.437,   5.337e-4
1.438,   5.522e-4
1.439,   5.715e-4
1.440,   5.912e-4
1.441,   6.115e-4
1.442,   6.322e-4
1.443,   6.534e-4
1.444,   6.750e-4
1.445,   6.971e-4
1.446,   7.197e-4
1.447,   7.428e-4
1.448,   7.665e-4
1.449,   7.908e-4
1.450,   8.155e-4
1.451,   8.407e-4
1.452,   8.665e-4
1.453,   8.929e-4
1.454,   9.199e-4
1.455,   9.468e-4
1.456,   9.743e-4
1.457,   1.002e-3
1.458,   1.031e-3
1.459,   1.061e-3
1.460,   1.090e-3
1.461,   1.120e-3
1.462,   1.150e-3
1.463,   1.181e-3
1.464,   1.212e-3
1.465,   1.243e-3
1.466,   1.274e-3
1.467,   1.307e-3
1.468,   1.339e-3
1.469,   1.371e-3
1.470,   1.404e-3
1.471,   1.437e-3
1.472,   1.471e-3
1.473,   1.505e-3
1.474,   1.539e-3
1.475,   1.573e-3
1.476,   1.607e-3
1.477,   1.641e-3
1.478,   1.676e-3
1.479,   1.711e-3
1.480,   1.745e-3
1.481,   1.779e-3
1.482,   1.813e-3
1.483,   1.847e-3
1.484,   1.881e-3
1.485,   1.915e-3
1.486,   1.950e-3
1.487,   1.984e-3
1.488,   2.018e-3
1.489,   2.052e-3
1.490,   2.086e-3
1.491,   2.119e-3
1.492,   2.152e-3
1.493,   2.185e-3
1.494,   2.218e-3
1.495,   2.251e-3
1.496,   2.284e-3
1.497,   2.316e-3
1.498,   2.348e-3
1.499,   2.380e-3
1.500,   2.412e-3
1.501,   2.443e-3
1.502,   2.477e-3
1.503,   2.510e-3
1.504,   2.541e-3
1.505,   2.572e-3
1.506,   2.600e-3
1.507,   2.630e-3
1.508,   2.660e-3
1.509,   2.685e-3
1.510,   2.712e-3
1.511,   2.740e-3
1.512,   2.768e-3
1.513,   2.796e-3
1.514,   2.823e-3
1.515,   2.849e-3
1.516,   2.876e-3
1.517,   2.903e-3
1.518,   2.929e-3
1.519,   2.953e-3
1.520,   2.976e-3
1.521,   3.001e-3
1.522,   3.022e-3
1.523,   3.044e-3
1.524,   3.066e-3
1.525,   3.088e-3
1.526,   3.111e-3
1.527,   3.133e-3
1.528,   3.158e-3
1.529,   3.181e-3
1.530,   3.202e-3
1.531,   3.219e-3
1.532,   3.245e-3
1.533,   3.267e-3
1.534,   3.287e-3
1.535,   3.304e-3