File: Experimental Records and Raw Data/batch4/final500/B4_BEST_500_#2_High_Quality(#18)-229mV.txt
Mar. 29, 2023   12:03:05
Linear Sweep Voltammetry
File: d:\current work\al_oer\electrochemical test data\batch 4\500\B4_BEST_500_#2_High_Quality(#18)-229mV.txt
Data Source:  Experiment
Instrument Model:  CHI660E
Header:
Note:

Init E (V) = 1.117

Final E (V) = 1.510

Scan Rate (V/s) = 0.010
Sample Interval (V) = 0.001
Quiet Time (sec) = 2
Sensitivity (A/V) = 0.001
Comp R (ohm) = 5.8

Results:

Channel 1:

Potential/V, Current/A
1.117,   1.016e-4
1.118,   1.183e-4
1.119,   1.169e-4
1.120,   1.123e-4
1.121,   1.083e-4
1.122,   1.045e-4
1.123,   1.012e-4
1.124,   9.850e-5
1.125,   9.605e-5
1.126,   9.383e-5
1.127,   9.192e-5
1.128,   9.018e-5
1.129,   8.886e-5
1.130,   8.726e-5
1.131,   8.618e-5
1.132,   8.523e-5
1.133,   8.399e-5
1.134,   8.316e-5
1.135,   8.249e-5
1.136,   8.154e-5
1.137,   8.127e-5
1.138,   8.095e-5
1.139,   8.000e-5
1.140,   7.958e-5
1.141,   7.896e-5
1.142,   7.857e-5
1.143,   7.823e-5
1.144,   7.780e-5
1.145,   7.767e-5
1.146,   7.725e-5
1.147,   7.690e-5
1.148,   7.685e-5
1.149,   7.646e-5
1.150,   7.654e-5
1.151,   7.637e-5
1.152,   7.598e-5
1.153,   7.599e-5
1.154,   7.571e-5
1.155,   7.551e-5
1.156,   7.558e-5
1.157,   7.542e-5
1.158,   7.537e-5
1.159,   7.530e-5
1.160,   7.514e-5
1.161,   7.518e-5
1.162,   7.498e-5
1.163,   7.513e-5
1.164,   7.516e-5
1.165,   7.488e-5
1.166,   7.501e-5
1.167,   7.508e-5
1.168,   7.490e-5
1.169,   7.505e-5
1.170,   7.510e-5
1.171,   7.504e-5
1.172,   7.526e-5
1.173,   7.506e-5
1.174,   7.516e-5
1.175,   7.538e-5
1.176,   7.543e-5
1.177,   7.553e-5
1.178,   7.544e-5
1.179,   7.554e-5
1.180,   7.582e-5
1.181,   7.553e-5
1.182,   7.581e-5
1.183,   7.593e-5
1.184,   7.592e-5
1.185,   7.609e-5
1.186,   7.616e-5
1.187,   7.631e-5
1.188,   7.656e-5
1.189,   7.654e-5
1.190,   7.661e-5
1.191,   7.683e-5
1.192,   7.664e-5
1.193,   7.690e-5
1.194,   7.688e-5
1.195,   7.718e-5
1.196,   7.739e-5
1.197,   7.710e-5
1.198,   7.758e-5
1.199,   7.772e-5
1.200,   7.749e-5
1.201,   7.799e-5
1.202,   7.829e-5
1.203,   7.807e-5
1.204,   7.845e-5
1.205,   7.828e-5
1.206,   7.853e-5
1.207,   7.867e-5
1.208,   7.886e-5
1.209,   7.897e-5
1.210,   7.908e-5
1.211,   7.920e-5
1.212,   7.959e-5
1.213,   7.938e-5
1.214,   7.980e-5
1.215,   8.011e-5
1.216,   7.994e-5
1.217,   8.038e-5
1.218,   8.042e-5
1.219,   8.036e-5
1.220,   8.075e-5
1.221,   8.088e-5
1.222,   8.110e-5
1.223,   8.131e-5
1.224,   8.123e-5
1.225,   8.170e-5
1.226,   8.162e-5
1.227,   8.199e-5
1.228,   8.225e-5
1.229,   8.199e-5
1.230,   8.232e-5
1.231,   8.262e-5
1.232,   8.250e-5
1.233,   8.300e-5
1.234,   8.317e-5
1.235,   8.321e-5
1.236,   8.350e-5
1.237,   8.335e-5
1.238,   8.373e-5
1.239,   8.405e-5
1.240,   8.391e-5
1.241,   8.428e-5
1.242,   8.424e-5
1.243,   8.446e-5
1.244,   8.496e-5
1.245,   8.469e-5
1.246,   8.502e-5
1.247,   8.536e-5
1.248,   8.516e-5
1.249,   8.552e-5
1.250,   8.551e-5
1.251,   8.559e-5
1.252,   8.599e-5
1.253,   8.605e-5
1.254,   8.601e-5
1.255,   8.623e-5
1.256,   8.628e-5
1.257,   8.646e-5
1.258,   8.640e-5
1.259,   8.659e-5
1.260,   8.689e-5
1.261,   8.659e-5
1.262,   8.681e-5
1.263,   8.715e-5
1.264,   8.683e-5
1.265,   8.722e-5
1.266,   8.725e-5
1.267,   8.707e-5
1.268,   8.737e-5
1.269,   8.720e-5
1.270,   8.733e-5
1.271,   8.746e-5
1.272,   8.734e-5
1.273,   8.755e-5
1.274,   8.747e-5
1.275,   8.741e-5
1.276,   8.759e-5
1.277,   8.725e-5
1.278,   8.772e-5
1.279,   8.789e-5
1.280,   8.736e-5
1.281,   8.770e-5
1.282,   8.753e-5
1.283,   8.761e-5
1.284,   8.777e-5
1.285,   8.766e-5
1.286,   8.767e-5
1.287,   8.757e-5
1.288,   8.745e-5
1.289,   8.770e-5
1.290,   8.746e-5
1.291,   8.779e-5
1.292,   8.793e-5
1.293,   8.762e-5
1.294,   8.767e-5
1.295,   8.781e-5
1.296,   8.747e-5
1.297,   8.785e-5
1.298,   8.775e-5
1.299,   8.757e-5
1.300,   8.802e-5
1.301,   8.758e-5
1.302,   8.780e-5
1.303,   8.779e-5
1.304,   8.802e-5
1.305,   8.802e-5
1.306,   8.778e-5
1.307,   8.784e-5
1.308,   8.809e-5
1.309,   8.775e-5
1.310,   8.796e-5
1.311,   8.810e-5
1.312,   8.791e-5
1.313,   8.812e-5
1.314,   8.813e-5
1.315,   8.807e-5
1.316,   8.830e-5
1.317,   8.838e-5
1.318,   8.833e-5
1.319,   8.845e-5
1.320,   8.843e-5
1.321,   8.856e-5
1.322,   8.843e-5
1.323,   8.868e-5
1.324,   8.885e-5
1.325,   8.872e-5
1.326,   8.891e-5
1.327,   8.904e-5
1.328,   8.885e-5
1.329,   8.934e-5
1.330,   8.944e-5
1.331,   8.943e-5
1.332,   8.968e-5
1.333,   8.951e-5
1.334,   8.978e-5
1.335,   9.001e-5
1.336,   9.004e-5
1.337,   9.046e-5
1.338,   9.038e-5
1.339,   9.054e-5
1.340,   9.088e-5
1.341,   9.065e-5
1.342,   9.144e-5
1.343,   9.177e-5
1.344,   9.128e-5
1.345,   9.168e-5
1.346,   9.184e-5
1.347,   9.191e-5
1.348,   9.239e-5
1.349,   9.236e-5
1.350,   9.270e-5
1.351,   9.302e-5
1.352,   9.306e-5
1.353,   9.352e-5
1.354,   9.360e-5
1.355,   9.405e-5
1.356,   9.460e-5
1.357,   9.455e-5
1.358,   9.500e-5
1.359,   9.529e-5
1.360,   9.537e-5
1.361,   9.591e-5
1.362,   9.639e-5
1.363,   9.658e-5
1.364,   9.728e-5
1.365,   9.735e-5
1.366,   9.790e-5
1.367,   9.832e-5
1.368,   9.890e-5
1.369,   9.954e-5
1.370,   9.988e-5
1.371,   1.003e-4
1.372,   1.012e-4
1.373,   1.014e-4
1.374,   1.022e-4
1.375,   1.030e-4
1.376,   1.034e-4
1.377,   1.044e-4
1.378,   1.051e-4
1.379,   1.057e-4
1.380,   1.069e-4
1.381,   1.079e-4
1.382,   1.087e-4
1.383,   1.097e-4
1.384,   1.106e-4
1.385,   1.121e-4
1.386,   1.130e-4
1.387,   1.147e-4
1.388,   1.163e-4
1.389,   1.174e-4
1.390,   1.193e-4
1.391,   1.211e-4
1.392,   1.227e-4
1.393,   1.252e-4
1.394,   1.274e-4
1.395,   1.295e-4
1.396,   1.322e-4
1.397,   1.346e-4
1.398,   1.376e-4
1.399,   1.409e-4
1.400,   1.443e-4
1.401,   1.479e-4
1.402,   1.516e-4
1.403,   1.559e-4
1.404,   1.606e-4
1.405,   1.651e-4
1.406,   1.708e-4
1.407,   1.764e-4
1.408,   1.820e-4
1.409,   1.888e-4
1.410,   1.955e-4
1.411,   2.029e-4
1.412,   2.111e-4
1.413,   2.195e-4
1.414,   2.288e-4
1.415,   2.389e-4
1.416,   2.494e-4
1.417,   2.612e-4
1.418,   2.730e-4
1.419,   2.863e-4
1.420,   3.004e-4
1.421,   3.147e-4
1.422,   3.308e-4
1.423,   3.475e-4
1.424,   3.649e-4
1.425,   3.841e-4
1.426,   4.040e-4
1.427,   4.243e-4
1.428,   4.464e-4
1.429,   4.685e-4
1.430,   4.939e-4
1.431,   5.191e-4
1.432,   5.464e-4
1.433,   5.750e-4
1.434,   6.032e-4
1.435,   6.359e-4
1.436,   6.699e-4
1.437,   7.002e-4
1.438,   7.378e-4
1.439,   7.723e-4
1.440,   8.071e-4
1.441,   8.480e-4
1.442,   8.908e-4
1.443,   9.332e-4
1.444,   9.775e-4
1.445,   1.019e-3
1.446,   1.068e-3
1.447,   1.115e-3
1.448,   1.163e-3
1.449,   1.215e-3
1.450,   1.279e-3
1.451,   1.338e-3
1.452,   1.412e-3
1.453,   1.467e-3
1.454,   1.523e-3
1.455,   1.585e-3
1.456,   1.658e-3
1.457,   1.737e-3
1.458,   1.814e-3
1.459,   1.896e-3
1.460,   1.978e-3
1.461,   2.063e-3
1.462,   2.137e-3
1.463,   2.222e-3
1.464,   2.315e-3
1.465,   2.420e-3
1.466,   2.513e-3
1.467,   2.613e-3
1.468,   2.713e-3
1.469,   2.822e-3
1.470,   2.932e-3
1.471,   3.061e-3
1.472,   3.193e-3
1.473,   3.311e-3
1.474,   3.434e-3
1.475,   3.552e-3
1.476,   3.694e-3
1.477,   3.845e-3
1.478,   3.972e-3
1.479,   4.120e-3
1.480,   4.269e-3
1.481,   4.434e-3
1.482,   4.579e-3
1.483,   4.763e-3
1.484,   4.928e-3
1.485,   5.077e-3
1.486,   5.256e-3
1.487,   5.438e-3
1.488,   5.622e-3
1.489,   5.814e-3
1.490,   6.021e-3
1.491,   6.184e-3
1.492,   6.391e-3
1.493,   6.598e-3
1.494,   6.799e-3
1.495,   7.037e-3
1.496,   7.328e-3
1.497,   7.515e-3
1.498,   7.818e-3
1.499,   8.053e-3
1.500,   8.352e-3
1.501,   8.680e-3
1.502,   8.999e-3
1.503,   9.188e-3
1.504,   9.470e-3
1.505,   9.691e-3
1.506,   9.899e-3
1.507,   1.006e-2
1.508,   1.006e-2
1.509,   1.006e-2
1.510,   1.006e-2