File: Experimental Records and Raw Data/batch4/final500/B4_VARIANCE_500_#6_High_Quality(#30)-329mV.txt
Mar. 28, 2023   12:12:09
Linear Sweep Voltammetry
File: d:\current work\al_oer\electrochemical test data\batch 4\500\B4_VARIANCE_500_#6_High_Quality(#30)-329mV.txt
Data Source:  Experiment
Instrument Model:  CHI660E
Header:
Note:

Init E (V) = 1.101

Final E (V) = 1.582

Scan Rate (V/s) = 0.010
Sample Interval (V) = 0.001
Quiet Time (sec) = 2
Sensitivity (A/V) = 0.001
Comp R (ohm) = 5.0

Results:

Channel 1:
Ep = 1.237V
ip = 3.746e-4A
Ah = 1.487e-3C

Potential/V, Current/A
1.101,   1.246E-04
1.102,   1.214E-04
1.103,   1.164E-04
1.104,   1.121E-04
1.105,   1.084E-04
1.106,   1.047E-04
1.107,   1.013E-04
1.108,   9.845E-05
1.109,   9.575E-05
1.11,   9.336E-05
1.111,   9.102E-05
1.112,   8.891E-05
1.113,   8.693E-05
1.114,   8.482E-05
1.115,   8.317E-05
1.116,   8.184E-05
1.117,   8.028E-05
1.118,   7.913E-05
1.119,   7.803E-05
1.12,   7.684E-05
1.121,   7.596E-05
1.122,   7.482E-05
1.123,   7.390E-05
1.124,   7.316E-05
1.125,   7.211E-05
1.126,   7.137E-05
1.127,   7.050E-05
1.128,   6.972E-05
1.129,   6.908E-05
1.13,   6.848E-05
1.131,   6.770E-05
1.132,   6.706E-05
1.133,   6.651E-05
1.134,   6.591E-05
1.135,   6.527E-05
1.136,   6.463E-05
1.137,   6.458E-05
1.138,   6.426E-05
1.139,   6.366E-05
1.14,   6.311E-05
1.141,   6.261E-05
1.142,   6.224E-05
1.143,   6.196E-05
1.144,   6.155E-05
1.145,   6.137E-05
1.146,   6.118E-05
1.147,   6.077E-05
1.148,   6.063E-05
1.149,   6.008E-05
1.15,   5.990E-05
1.151,   5.994E-05
1.152,   5.953E-05
1.153,   5.930E-05
1.154,   5.898E-05
1.155,   5.866E-05
1.156,   5.838E-05
1.157,   5.843E-05
1.158,   5.815E-05
1.159,   5.797E-05
1.16,   5.793E-05
1.161,   5.788E-05
1.162,   5.779E-05
1.163,   5.760E-05
1.164,   5.728E-05
1.165,   5.719E-05
1.166,   5.692E-05
1.167,   5.692E-05
1.168,   5.678E-05
1.169,   5.664E-05
1.17,   5.655E-05
1.171,   5.659E-05
1.172,   5.646E-05
1.173,   5.641E-05
1.174,   5.632E-05
1.175,   5.623E-05
1.176,   5.595E-05
1.177,   5.595E-05
1.178,   5.586E-05
1.179,   5.595E-05
1.18,   5.595E-05
1.181,   5.568E-05
1.182,   5.577E-05
1.183,   5.572E-05
1.184,   5.563E-05
1.185,   5.558E-05
1.186,   5.549E-05
1.187,   5.545E-05
1.188,   5.549E-05
1.189,   5.545E-05
1.19,   5.549E-05
1.191,   5.535E-05
1.192,   5.549E-05
1.193,   5.549E-05
1.194,   5.531E-05
1.195,   5.535E-05
1.196,   5.558E-05
1.197,   5.563E-05
1.198,   5.554E-05
1.199,   5.577E-05
1.2,   5.558E-05
1.201,   5.558E-05
1.202,   5.558E-05
1.203,   5.572E-05
1.204,   5.572E-05
1.205,   5.577E-05
1.206,   5.586E-05
1.207,   5.568E-05
1.208,   5.577E-05
1.209,   5.581E-05
1.21,   5.577E-05
1.211,   5.581E-05
1.212,   5.600E-05
1.213,   5.609E-05
1.214,   5.609E-05
1.215,   5.618E-05
1.216,   5.618E-05
1.217,   5.636E-05
1.218,   5.646E-05
1.219,   5.673E-05
1.22,   5.682E-05
1.221,   5.673E-05
1.222,   5.678E-05
1.223,   5.692E-05
1.224,   5.701E-05
1.225,   5.705E-05
1.226,   5.719E-05
1.227,   5.724E-05
1.228,   5.724E-05
1.229,   5.710E-05
1.23,   5.724E-05
1.231,   5.742E-05
1.232,   5.756E-05
1.233,   5.760E-05
1.234,   5.770E-05
1.235,   5.802E-05
1.236,   5.779E-05
1.237,   5.774E-05
1.238,   5.774E-05
1.239,   5.815E-05
1.24,   5.852E-05
1.241,   5.843E-05
1.242,   5.843E-05
1.243,   5.866E-05
1.244,   5.875E-05
1.245,   5.898E-05
1.246,   5.907E-05
1.247,   5.930E-05
1.248,   5.944E-05
1.249,   5.949E-05
1.25,   5.976E-05
1.251,   5.990E-05
1.252,   6.004E-05
1.253,   6.013E-05
1.254,   6.027E-05
1.255,   6.040E-05
1.256,   6.059E-05
1.257,   6.086E-05
1.258,   6.100E-05
1.259,   6.128E-05
1.26,   6.164E-05
1.261,   6.160E-05
1.262,   6.183E-05
1.263,   6.187E-05
1.264,   6.192E-05
1.265,   6.210E-05
1.266,   6.224E-05
1.267,   6.238E-05
1.268,   6.274E-05
1.269,   6.311E-05
1.27,   6.325E-05
1.271,   6.334E-05
1.272,   6.334E-05
1.273,   6.362E-05
1.274,   6.385E-05
1.275,   6.412E-05
1.276,   6.435E-05
1.277,   6.458E-05
1.278,   6.463E-05
1.279,   6.509E-05
1.28,   6.536E-05
1.281,   6.564E-05
1.282,   6.605E-05
1.283,   6.628E-05
1.284,   6.642E-05
1.285,   6.651E-05
1.286,   6.665E-05
1.287,   6.697E-05
1.288,   6.733E-05
1.289,   6.766E-05
1.29,   6.784E-05
1.291,   6.825E-05
1.292,   6.871E-05
1.293,   6.876E-05
1.294,   6.899E-05
1.295,   6.940E-05
1.296,   6.986E-05
1.297,   7.013E-05
1.298,   7.036E-05
1.299,   7.064E-05
1.3,   7.105E-05
1.301,   7.128E-05
1.302,   7.147E-05
1.303,   7.179E-05
1.304,   7.206E-05
1.305,   7.238E-05
1.306,   7.298E-05
1.307,   7.390E-05
1.308,   7.449E-05
1.309,   7.495E-05
1.31,   7.523E-05
1.311,   7.550E-05
1.312,   7.596E-05
1.313,   7.642E-05
1.314,   7.679E-05
1.315,   7.670E-05
1.316,   7.707E-05
1.317,   7.716E-05
1.318,   7.771E-05
1.319,   7.798E-05
1.32,   7.830E-05
1.321,   7.895E-05
1.322,   7.922E-05
1.323,   7.954E-05
1.324,   8.014E-05
1.325,   8.042E-05
1.326,   8.092E-05
1.327,   8.166E-05
1.328,   8.248E-05
1.329,   8.285E-05
1.33,   8.354E-05
1.331,   8.404E-05
1.332,   8.459E-05
1.333,   8.510E-05
1.334,   8.579E-05
1.335,   8.638E-05
1.336,   8.721E-05
1.337,   8.799E-05
1.338,   8.840E-05
1.339,   8.904E-05
1.34,   8.978E-05
1.341,   9.038E-05
1.342,   9.120E-05
1.343,   9.157E-05
1.344,   9.207E-05
1.345,   9.267E-05
1.346,   9.345E-05
1.347,   9.423E-05
1.348,   9.533E-05
1.349,   9.621E-05
1.35,   9.671E-05
1.351,   9.758E-05
1.352,   9.809E-05
1.353,   9.864E-05
1.354,   9.969E-05
1.355,   1.004E-04
1.356,   1.012E-04
1.357,   1.023E-04
1.358,   1.030E-04
1.359,   1.033E-04
1.36,   1.042E-04
1.361,   1.052E-04
1.362,   1.065E-04
1.363,   1.079E-04
1.364,   1.092E-04
1.365,   1.103E-04
1.366,   1.115E-04
1.367,   1.125E-04
1.368,   1.144E-04
1.369,   1.151E-04
1.37,   1.161E-04
1.371,   1.173E-04
1.372,   1.185E-04
1.373,   1.198E-04
1.374,   1.212E-04
1.375,   1.228E-04
1.376,   1.242E-04
1.377,   1.258E-04
1.378,   1.276E-04
1.379,   1.299E-04
1.38,   1.325E-04
1.381,   1.344E-04
1.382,   1.367E-04
1.383,   1.389E-04
1.384,   1.414E-04
1.385,   1.438E-04
1.386,   1.465E-04
1.387,   1.493E-04
1.388,   1.525E-04
1.389,   1.555E-04
1.39,   1.590E-04
1.391,   1.627E-04
1.392,   1.662E-04
1.393,   1.707E-04
1.394,   1.753E-04
1.395,   1.801E-04
1.396,   1.851E-04
1.397,   1.907E-04
1.398,   1.961E-04
1.399,   2.022E-04
1.4,   2.089E-04
1.401,   2.165E-04
1.402,   2.240E-04
1.403,   2.329E-04
1.404,   2.423E-04
1.405,   2.519E-04
1.406,   2.638E-04
1.407,   2.760E-04
1.408,   2.898E-04
1.409,   3.052E-04
1.41,   3.222E-04
1.411,   3.412E-04
1.412,   3.634E-04
1.413,   3.875E-04
1.414,   4.153E-04
1.415,   4.461E-04
1.416,   4.810E-04
1.417,   5.210E-04
1.418,   5.664E-04
1.419,   6.192E-04
1.42,   6.770E-04
1.421,   7.417E-04
1.422,   8.129E-04
1.423,   8.900E-04
1.424,   9.712E-04
1.425,   1.059E-03
1.426,   1.149E-03
1.427,   1.241E-03
1.428,   1.331E-03
1.429,   1.417E-03
1.43,   1.499E-03
1.431,   1.572E-03
1.432,   1.637E-03
1.433,   1.690E-03
1.434,   1.729E-03
1.435,   1.756E-03
1.436,   1.772E-03
1.437,   1.776E-03
1.438,   1.769E-03
1.439,   1.752E-03
1.44,   1.726E-03
1.441,   1.694E-03
1.442,   1.657E-03
1.443,   1.617E-03
1.444,   1.574E-03
1.445,   1.527E-03
1.446,   1.481E-03
1.447,   1.436E-03
1.448,   1.394E-03
1.449,   1.358E-03
1.45,   1.317E-03
1.451,   1.280E-03
1.452,   1.248E-03
1.453,   1.220E-03
1.454,   1.195E-03
1.455,   1.172E-03
1.456,   1.152E-03
1.457,   1.134E-03
1.458,   1.119E-03
1.459,   1.103E-03
1.46,   1.092E-03
1.461,   1.086E-03
1.462,   1.079E-03
1.463,   1.074E-03
1.464,   1.071E-03
1.465,   1.069E-03
1.466,   1.069E-03
1.467,   1.072E-03
1.468,   1.076E-03
1.469,   1.082E-03
1.47,   1.082E-03
1.471,   1.088E-03
1.472,   1.093E-03
1.473,   1.097E-03
1.474,   1.104E-03
1.475,   1.113E-03
1.476,   1.123E-03
1.477,   1.132E-03
1.478,   1.143E-03
1.479,   1.154E-03
1.48,   1.166E-03
1.481,   1.175E-03
1.482,   1.185E-03
1.483,   1.196E-03
1.484,   1.209E-03
1.485,   1.223E-03
1.486,   1.238E-03
1.487,   1.252E-03
1.488,   1.264E-03
1.489,   1.280E-03
1.49,   1.293E-03
1.491,   1.305E-03
1.492,   1.320E-03
1.493,   1.334E-03
1.494,   1.349E-03
1.495,   1.363E-03
1.496,   1.377E-03
1.497,   1.389E-03
1.498,   1.405E-03
1.499,   1.421E-03
1.5,   1.439E-03
1.501,   1.455E-03
1.502,   1.470E-03
1.503,   1.484E-03
1.504,   1.497E-03
1.505,   1.511E-03
1.506,   1.525E-03
1.507,   1.540E-03
1.508,   1.556E-03
1.509,   1.572E-03
1.51,   1.585E-03
1.511,   1.596E-03
1.512,   1.610E-03
1.513,   1.624E-03
1.514,   1.636E-03
1.515,   1.650E-03
1.516,   1.663E-03
1.517,   1.677E-03
1.518,   1.692E-03
1.519,   1.706E-03
1.52,   1.721E-03
1.521,   1.734E-03
1.522,   1.750E-03
1.523,   1.764E-03
1.524,   1.774E-03
1.525,   1.786E-03
1.526,   1.800E-03
1.527,   1.813E-03
1.528,   1.827E-03
1.529,   1.837E-03
1.53,   1.847E-03
1.531,   1.859E-03
1.532,   1.868E-03
1.533,   1.877E-03
1.534,   1.885E-03
1.535,   1.895E-03
1.536,   1.905E-03
1.537,   1.911E-03
1.538,   1.918E-03
1.539,   1.926E-03
1.54,   1.930E-03
1.541,   1.932E-03
1.542,   1.936E-03
1.543,   1.942E-03
1.544,   1.944E-03
1.545,   1.948E-03
1.546,   1.950E-03
1.547,   1.951E-03
1.548,   1.952E-03
1.549,   1.953E-03
1.55,   1.957E-03
1.551,   1.959E-03
1.552,   1.959E-03
1.553,   1.961E-03
1.554,   1.963E-03
1.555,   1.964E-03
1.556,   1.967E-03
1.557,   1.970E-03
1.558,   1.971E-03
1.559,   1.972E-03
1.56,   1.972E-03
1.561,   1.970E-03
1.562,   1.967E-03
1.563,   1.967E-03
1.564,   1.967E-03
1.565,   1.967E-03
1.566,   1.966E-03
1.567,   1.965E-03
1.568,   1.963E-03
1.569,   1.960E-03
1.57,   1.960E-03
1.571,   1.959E-03
1.572,   1.957E-03
1.573,   1.954E-03
1.574,   1.953E-03
1.575,   1.950E-03
1.576,   1.948E-03
1.577,   1.946E-03
1.578,   1.943E-03
1.579,   1.940E-03
1.58,   1.936E-03
1.581,   1.935E-03
1.582,   1.936E-03