File: Experimental Records and Raw Data/batch4/final500/B4_VARIANCE_500_#5_High_Quality(#29)-270mV.txt
Mar. 29, 2023   12:58:20
Linear Sweep Voltammetry
File: d:\current work\al_oer\electrochemical test data\batch 4\500\B4_VARIANCE_500_#5_High_Quality(#29)-270mV.txt
Data Source:  Experiment
Instrument Model:  CHI660E
Header:
Note:

Init E (V) = 1.095

Final E (V) = 1.593

Scan Rate (V/s) = 0.010
Sample Interval (V) = 0.001
Quiet Time (sec) = 2
Sensitivity (A/V) = 0.001
Comp R (ohm) = 6.6

Results:

Channel 1:

Potential/V, Current/A
1.095,   5.486e-4
1.096,   5.149e-4
1.097,   4.827e-4
1.098,   4.529e-4
1.099,   4.262e-4
1.100,   4.023e-4
1.101,   3.805e-4
1.102,   3.613e-4
1.103,   3.440e-4
1.104,   3.282e-4
1.105,   3.134e-4
1.106,   3.000e-4
1.107,   2.876e-4
1.108,   2.769e-4
1.109,   2.670e-4
1.110,   2.578e-4
1.111,   2.492e-4
1.112,   2.416e-4
1.113,   2.340e-4
1.114,   2.271e-4
1.115,   2.212e-4
1.116,   2.153e-4
1.117,   2.097e-4
1.118,   2.049e-4
1.119,   2.003e-4
1.120,   1.959e-4
1.121,   1.920e-4
1.122,   1.881e-4
1.123,   1.845e-4
1.124,   1.808e-4
1.125,   1.777e-4
1.126,   1.746e-4
1.127,   1.715e-4
1.128,   1.691e-4
1.129,   1.667e-4
1.130,   1.642e-4
1.131,   1.620e-4
1.132,   1.599e-4
1.133,   1.580e-4
1.134,   1.556e-4
1.135,   1.538e-4
1.136,   1.523e-4
1.137,   1.506e-4
1.138,   1.491e-4
1.139,   1.477e-4
1.140,   1.462e-4
1.141,   1.450e-4
1.142,   1.437e-4
1.143,   1.424e-4
1.144,   1.413e-4
1.145,   1.402e-4
1.146,   1.391e-4
1.147,   1.383e-4
1.148,   1.373e-4
1.149,   1.364e-4
1.150,   1.354e-4
1.151,   1.346e-4
1.152,   1.338e-4
1.153,   1.331e-4
1.154,   1.324e-4
1.155,   1.318e-4
1.156,   1.311e-4
1.157,   1.304e-4
1.158,   1.298e-4
1.159,   1.293e-4
1.160,   1.288e-4
1.161,   1.283e-4
1.162,   1.277e-4
1.163,   1.274e-4
1.164,   1.265e-4
1.165,   1.260e-4
1.166,   1.257e-4
1.167,   1.254e-4
1.168,   1.254e-4
1.169,   1.249e-4
1.170,   1.244e-4
1.171,   1.242e-4
1.172,   1.240e-4
1.173,   1.239e-4
1.174,   1.240e-4
1.175,   1.234e-4
1.176,   1.232e-4
1.177,   1.231e-4
1.178,   1.229e-4
1.179,   1.228e-4
1.180,   1.227e-4
1.181,   1.227e-4
1.182,   1.225e-4
1.183,   1.224e-4
1.184,   1.224e-4
1.185,   1.224e-4
1.186,   1.223e-4
1.187,   1.224e-4
1.188,   1.222e-4
1.189,   1.222e-4
1.190,   1.222e-4
1.191,   1.221e-4
1.192,   1.222e-4
1.193,   1.222e-4
1.194,   1.221e-4
1.195,   1.222e-4
1.196,   1.222e-4
1.197,   1.223e-4
1.198,   1.224e-4
1.199,   1.222e-4
1.200,   1.224e-4
1.201,   1.223e-4
1.202,   1.223e-4
1.203,   1.224e-4
1.204,   1.224e-4
1.205,   1.225e-4
1.206,   1.226e-4
1.207,   1.225e-4
1.208,   1.227e-4
1.209,   1.227e-4
1.210,   1.226e-4
1.211,   1.228e-4
1.212,   1.228e-4
1.213,   1.228e-4
1.214,   1.229e-4
1.215,   1.230e-4
1.216,   1.231e-4
1.217,   1.232e-4
1.218,   1.232e-4
1.219,   1.232e-4
1.220,   1.233e-4
1.221,   1.235e-4
1.222,   1.235e-4
1.223,   1.233e-4
1.224,   1.234e-4
1.225,   1.236e-4
1.226,   1.236e-4
1.227,   1.235e-4
1.228,   1.236e-4
1.229,   1.237e-4
1.230,   1.238e-4
1.231,   1.239e-4
1.232,   1.238e-4
1.233,   1.239e-4
1.234,   1.240e-4
1.235,   1.241e-4
1.236,   1.239e-4
1.237,   1.239e-4
1.238,   1.240e-4
1.239,   1.239e-4
1.240,   1.239e-4
1.241,   1.241e-4
1.242,   1.240e-4
1.243,   1.241e-4
1.244,   1.242e-4
1.245,   1.242e-4
1.246,   1.243e-4
1.247,   1.242e-4
1.248,   1.243e-4
1.249,   1.244e-4
1.250,   1.244e-4
1.251,   1.243e-4
1.252,   1.243e-4
1.253,   1.243e-4
1.254,   1.243e-4
1.255,   1.244e-4
1.256,   1.246e-4
1.257,   1.246e-4
1.258,   1.245e-4
1.259,   1.246e-4
1.260,   1.246e-4
1.261,   1.245e-4
1.262,   1.246e-4
1.263,   1.248e-4
1.264,   1.249e-4
1.265,   1.250e-4
1.266,   1.250e-4
1.267,   1.251e-4
1.268,   1.250e-4
1.269,   1.251e-4
1.270,   1.252e-4
1.271,   1.252e-4
1.272,   1.252e-4
1.273,   1.250e-4
1.274,   1.250e-4
1.275,   1.251e-4
1.276,   1.250e-4
1.277,   1.250e-4
1.278,   1.251e-4
1.279,   1.254e-4
1.280,   1.261e-4
1.281,   1.261e-4
1.282,   1.261e-4
1.283,   1.262e-4
1.284,   1.261e-4
1.285,   1.261e-4
1.286,   1.263e-4
1.287,   1.261e-4
1.288,   1.260e-4
1.289,   1.260e-4
1.290,   1.253e-4
1.291,   1.252e-4
1.292,   1.252e-4
1.293,   1.253e-4
1.294,   1.254e-4
1.295,   1.255e-4
1.296,   1.256e-4
1.297,   1.256e-4
1.298,   1.257e-4
1.299,   1.257e-4
1.300,   1.256e-4
1.301,   1.257e-4
1.302,   1.259e-4
1.303,   1.259e-4
1.304,   1.261e-4
1.305,   1.262e-4
1.306,   1.261e-4
1.307,   1.263e-4
1.308,   1.264e-4
1.309,   1.264e-4
1.310,   1.265e-4
1.311,   1.265e-4
1.312,   1.266e-4
1.313,   1.268e-4
1.314,   1.269e-4
1.315,   1.271e-4
1.316,   1.271e-4
1.317,   1.272e-4
1.318,   1.273e-4
1.319,   1.274e-4
1.320,   1.277e-4
1.321,   1.280e-4
1.322,   1.280e-4
1.323,   1.282e-4
1.324,   1.282e-4
1.325,   1.283e-4
1.326,   1.286e-4
1.327,   1.288e-4
1.328,   1.290e-4
1.329,   1.291e-4
1.330,   1.293e-4
1.331,   1.295e-4
1.332,   1.297e-4
1.333,   1.299e-4
1.334,   1.302e-4
1.335,   1.303e-4
1.336,   1.306e-4
1.337,   1.309e-4
1.338,   1.312e-4
1.339,   1.317e-4
1.340,   1.320e-4
1.341,   1.322e-4
1.342,   1.325e-4
1.343,   1.328e-4
1.344,   1.331e-4
1.345,   1.333e-4
1.346,   1.335e-4
1.347,   1.339e-4
1.348,   1.343e-4
1.349,   1.347e-4
1.350,   1.351e-4
1.351,   1.353e-4
1.352,   1.358e-4
1.353,   1.361e-4
1.354,   1.364e-4
1.355,   1.369e-4
1.356,   1.372e-4
1.357,   1.376e-4
1.358,   1.382e-4
1.359,   1.389e-4
1.360,   1.394e-4
1.361,   1.398e-4
1.362,   1.402e-4
1.363,   1.409e-4
1.364,   1.415e-4
1.365,   1.420e-4
1.366,   1.426e-4
1.367,   1.432e-4
1.368,   1.440e-4
1.369,   1.448e-4
1.370,   1.455e-4
1.371,   1.464e-4
1.372,   1.472e-4
1.373,   1.479e-4
1.374,   1.488e-4
1.375,   1.496e-4
1.376,   1.504e-4
1.377,   1.512e-4
1.378,   1.521e-4
1.379,   1.532e-4
1.380,   1.541e-4
1.381,   1.551e-4
1.382,   1.563e-4
1.383,   1.574e-4
1.384,   1.588e-4
1.385,   1.600e-4
1.386,   1.611e-4
1.387,   1.624e-4
1.388,   1.637e-4
1.389,   1.651e-4
1.390,   1.668e-4
1.391,   1.687e-4
1.392,   1.711e-4
1.393,   1.727e-4
1.394,   1.743e-4
1.395,   1.761e-4
1.396,   1.778e-4
1.397,   1.798e-4
1.398,   1.819e-4
1.399,   1.837e-4
1.400,   1.859e-4
1.401,   1.882e-4
1.402,   1.903e-4
1.403,   1.928e-4
1.404,   1.953e-4
1.405,   1.982e-4
1.406,   2.011e-4
1.407,   2.040e-4
1.408,   2.069e-4
1.409,   2.100e-4
1.410,   2.133e-4
1.411,   2.170e-4
1.412,   2.204e-4
1.413,   2.241e-4
1.414,   2.280e-4
1.415,   2.319e-4
1.416,   2.362e-4
1.417,   2.406e-4
1.418,   2.448e-4
1.419,   2.500e-4
1.420,   2.553e-4
1.421,   2.603e-4
1.422,   2.656e-4
1.423,   2.712e-4
1.424,   2.768e-4
1.425,   2.827e-4
1.426,   2.889e-4
1.427,   2.952e-4
1.428,   3.017e-4
1.429,   3.089e-4
1.430,   3.163e-4
1.431,   3.236e-4
1.432,   3.312e-4
1.433,   3.392e-4
1.434,   3.476e-4
1.435,   3.559e-4
1.436,   3.647e-4
1.437,   3.737e-4
1.438,   3.833e-4
1.439,   3.929e-4
1.440,   4.031e-4
1.441,   4.134e-4
1.442,   4.242e-4
1.443,   4.355e-4
1.444,   4.470e-4
1.445,   4.589e-4
1.446,   4.712e-4
1.447,   4.836e-4
1.448,   4.965e-4
1.449,   5.099e-4
1.450,   5.238e-4
1.451,   5.382e-4
1.452,   5.525e-4
1.453,   5.675e-4
1.454,   5.829e-4
1.455,   5.986e-4
1.456,   6.151e-4
1.457,   6.321e-4
1.458,   6.496e-4
1.459,   6.675e-4
1.460,   6.855e-4
1.461,   7.045e-4
1.462,   7.241e-4
1.463,   7.440e-4
1.464,   7.651e-4
1.465,   7.861e-4
1.466,   8.074e-4
1.467,   8.297e-4
1.468,   8.525e-4
1.469,   8.765e-4
1.470,   9.008e-4
1.471,   9.258e-4
1.472,   9.515e-4
1.473,   9.768e-4
1.474,   1.003e-3
1.475,   1.030e-3
1.476,   1.059e-3
1.477,   1.088e-3
1.478,   1.117e-3
1.479,   1.146e-3
1.480,   1.177e-3
1.481,   1.209e-3
1.482,   1.241e-3
1.483,   1.273e-3
1.484,   1.306e-3
1.485,   1.340e-3
1.486,   1.375e-3
1.487,   1.410e-3
1.488,   1.447e-3
1.489,   1.483e-3
1.490,   1.520e-3
1.491,   1.558e-3
1.492,   1.596e-3
1.493,   1.635e-3
1.494,   1.676e-3
1.495,   1.716e-3
1.496,   1.757e-3
1.497,   1.797e-3
1.498,   1.838e-3
1.499,   1.877e-3
1.500,   1.919e-3
1.501,   1.964e-3
1.502,   2.009e-3
1.503,   2.054e-3
1.504,   2.099e-3
1.505,   2.145e-3
1.506,   2.191e-3
1.507,   2.236e-3
1.508,   2.283e-3
1.509,   2.333e-3
1.510,   2.381e-3
1.511,   2.427e-3
1.512,   2.475e-3
1.513,   2.525e-3
1.514,   2.574e-3
1.515,   2.624e-3
1.516,   2.674e-3
1.517,   2.724e-3
1.518,   2.775e-3
1.519,   2.828e-3
1.520,   2.881e-3
1.521,   2.931e-3
1.522,   2.979e-3
1.523,   3.028e-3
1.524,   3.083e-3
1.525,   3.138e-3
1.526,   3.188e-3
1.527,   3.242e-3
1.528,   3.297e-3
1.529,   3.352e-3
1.530,   3.408e-3
1.531,   3.461e-3
1.532,   3.516e-3
1.533,   3.570e-3
1.534,   3.622e-3
1.535,   3.678e-3
1.536,   3.730e-3
1.537,   3.784e-3
1.538,   3.838e-3
1.539,   3.866e-3
1.540,   3.918e-3
1.541,   3.973e-3
1.542,   4.029e-3
1.543,   4.082e-3
1.544,   4.133e-3
1.545,   4.185e-3
1.546,   4.240e-3
1.547,   4.295e-3
1.548,   4.351e-3
1.549,   4.402e-3
1.550,   4.452e-3
1.551,   4.507e-3
1.552,   4.559e-3
1.553,   4.616e-3
1.554,   4.660e-3
1.555,   4.710e-3
1.556,   4.764e-3
1.557,   4.828e-3
1.558,   4.889e-3
1.559,   4.939e-3
1.560,   4.987e-3
1.561,   5.046e-3
1.562,   5.102e-3
1.563,   5.153e-3
1.564,   5.153e-3
1.565,   5.175e-3
1.566,   5.224e-3
1.567,   5.268e-3
1.568,   5.322e-3
1.569,   5.366e-3
1.570,   5.420e-3
1.571,   5.485e-3
1.572,   5.537e-3
1.573,   5.599e-3
1.574,   5.632e-3
1.575,   5.607e-3
1.576,   5.629e-3
1.577,   5.677e-3
1.578,   5.727e-3
1.579,   5.781e-3
1.580,   5.774e-3
1.581,   5.534e-3
1.582,   5.551e-3
1.583,   5.599e-3
1.584,   5.642e-3
1.585,   5.695e-3
1.586,   5.757e-3
1.587,   5.805e-3
1.588,   5.854e-3
1.589,   5.903e-3
1.590,   5.946e-3
1.591,   5.994e-3
1.592,   6.044e-3
1.593,   6.087e-3