File: Experimental Records and Raw Data/batch4/final500/B4_VARIANCE_500_#3_Full(#11)-284mV.txt
Mar. 28, 2023   12:52:50
Linear Sweep Voltammetry
File: d:\current work\al_oer\electrochemical test data\batch 4\500\B4_VARIANCE_500_#3_Full(#11)-284mV.txt
Data Source:  Experiment
Instrument Model:  CHI660E
Header:
Note:

Init E (V) = 1.088

Final E (V) = 1.527

Scan Rate (V/s) = 0.010
Sample Interval (V) = 0.001
Quiet Time (sec) = 2
Sensitivity (A/V) = 0.001
Comp R (ohm) = 5.1

Results:

Channel 1:

Potential/V, Current/A
1.088,   2.697E-05
1.089,   2.617E-05
1.09,   2.472E-05
1.091,   2.342E-05
1.092,   2.228E-05
1.093,   2.129E-05
1.094,   2.040E-05
1.095,   1.963E-05
1.096,   1.897E-05
1.097,   1.833E-05
1.098,   1.776E-05
1.099,   1.725E-05
1.1,   1.681E-05
1.101,   1.635E-05
1.102,   1.599E-05
1.103,   1.562E-05
1.104,   1.530E-05
1.105,   1.501E-05
1.106,   1.472E-05
1.107,   1.446E-05
1.108,   1.424E-05
1.109,   1.403E-05
1.11,   1.384E-05
1.111,   1.362E-05
1.112,   1.342E-05
1.113,   1.327E-05
1.114,   1.313E-05
1.115,   1.296E-05
1.116,   1.285E-05
1.117,   1.272E-05
1.118,   1.260E-05
1.119,   1.252E-05
1.12,   1.243E-05
1.121,   1.234E-05
1.122,   1.221E-05
1.123,   1.213E-05
1.124,   1.207E-05
1.125,   1.197E-05
1.126,   1.192E-05
1.127,   1.188E-05
1.128,   1.179E-05
1.129,   1.175E-05
1.13,   1.170E-05
1.131,   1.163E-05
1.132,   1.163E-05
1.133,   1.159E-05
1.134,   1.156E-05
1.135,   1.151E-05
1.136,   1.147E-05
1.137,   1.141E-05
1.138,   1.140E-05
1.139,   1.138E-05
1.14,   1.137E-05
1.141,   1.134E-05
1.142,   1.134E-05
1.143,   1.132E-05
1.144,   1.130E-05
1.145,   1.129E-05
1.146,   1.130E-05
1.147,   1.127E-05
1.148,   1.127E-05
1.149,   1.122E-05
1.15,   1.123E-05
1.151,   1.127E-05
1.152,   1.120E-05
1.153,   1.122E-05
1.154,   1.127E-05
1.155,   1.123E-05
1.156,   1.122E-05
1.157,   1.122E-05
1.158,   1.126E-05
1.159,   1.128E-05
1.16,   1.127E-05
1.161,   1.130E-05
1.162,   1.129E-05
1.163,   1.130E-05
1.164,   1.132E-05
1.165,   1.133E-05
1.166,   1.134E-05
1.167,   1.136E-05
1.168,   1.137E-05
1.169,   1.139E-05
1.17,   1.139E-05
1.171,   1.136E-05
1.172,   1.143E-05
1.173,   1.147E-05
1.174,   1.148E-05
1.175,   1.151E-05
1.176,   1.151E-05
1.177,   1.153E-05
1.178,   1.154E-05
1.179,   1.156E-05
1.18,   1.159E-05
1.181,   1.162E-05
1.182,   1.165E-05
1.183,   1.168E-05
1.184,   1.170E-05
1.185,   1.173E-05
1.186,   1.174E-05
1.187,   1.177E-05
1.188,   1.182E-05
1.189,   1.186E-05
1.19,   1.189E-05
1.191,   1.193E-05
1.192,   1.197E-05
1.193,   1.200E-05
1.194,   1.203E-05
1.195,   1.207E-05
1.196,   1.212E-05
1.197,   1.213E-05
1.198,   1.218E-05
1.199,   1.226E-05
1.2,   1.228E-05
1.201,   1.230E-05
1.202,   1.237E-05
1.203,   1.240E-05
1.204,   1.248E-05
1.205,   1.254E-05
1.206,   1.253E-05
1.207,   1.261E-05
1.208,   1.263E-05
1.209,   1.269E-05
1.21,   1.274E-05
1.211,   1.281E-05
1.212,   1.285E-05
1.213,   1.290E-05
1.214,   1.293E-05
1.215,   1.297E-05
1.216,   1.307E-05
1.217,   1.312E-05
1.218,   1.319E-05
1.219,   1.322E-05
1.22,   1.327E-05
1.221,   1.333E-05
1.222,   1.338E-05
1.223,   1.343E-05
1.224,   1.348E-05
1.225,   1.353E-05
1.226,   1.361E-05
1.227,   1.363E-05
1.228,   1.370E-05
1.229,   1.378E-05
1.23,   1.380E-05
1.231,   1.388E-05
1.232,   1.390E-05
1.233,   1.396E-05
1.234,   1.404E-05
1.235,   1.403E-05
1.236,   1.410E-05
1.237,   1.419E-05
1.238,   1.421E-05
1.239,   1.425E-05
1.24,   1.429E-05
1.241,   1.437E-05
1.242,   1.443E-05
1.243,   1.447E-05
1.244,   1.449E-05
1.245,   1.454E-05
1.246,   1.459E-05
1.247,   1.465E-05
1.248,   1.469E-05
1.249,   1.478E-05
1.25,   1.483E-05
1.251,   1.484E-05
1.252,   1.494E-05
1.253,   1.499E-05
1.254,   1.504E-05
1.255,   1.510E-05
1.256,   1.519E-05
1.257,   1.525E-05
1.258,   1.533E-05
1.259,   1.535E-05
1.26,   1.545E-05
1.261,   1.551E-05
1.262,   1.557E-05
1.263,   1.564E-05
1.264,   1.576E-05
1.265,   1.580E-05
1.266,   1.590E-05
1.267,   1.594E-05
1.268,   1.602E-05
1.269,   1.611E-05
1.27,   1.615E-05
1.271,   1.625E-05
1.272,   1.629E-05
1.273,   1.636E-05
1.274,   1.646E-05
1.275,   1.657E-05
1.276,   1.665E-05
1.277,   1.673E-05
1.278,   1.681E-05
1.279,   1.695E-05
1.28,   1.700E-05
1.281,   1.706E-05
1.282,   1.720E-05
1.283,   1.727E-05
1.284,   1.739E-05
1.285,   1.748E-05
1.286,   1.758E-05
1.287,   1.768E-05
1.288,   1.780E-05
1.289,   1.793E-05
1.29,   1.801E-05
1.291,   1.811E-05
1.292,   1.825E-05
1.293,   1.838E-05
1.294,   1.844E-05
1.295,   1.859E-05
1.296,   1.874E-05
1.297,   1.886E-05
1.298,   1.896E-05
1.299,   1.906E-05
1.3,   1.922E-05
1.301,   1.933E-05
1.302,   1.944E-05
1.303,   1.962E-05
1.304,   1.973E-05
1.305,   1.993E-05
1.306,   2.008E-05
1.307,   2.024E-05
1.308,   2.044E-05
1.309,   2.056E-05
1.31,   2.072E-05
1.311,   2.092E-05
1.312,   2.110E-05
1.313,   2.131E-05
1.314,   2.152E-05
1.315,   2.167E-05
1.316,   2.191E-05
1.317,   2.208E-05
1.318,   2.227E-05
1.319,   2.248E-05
1.32,   2.268E-05
1.321,   2.292E-05
1.322,   2.320E-05
1.323,   2.340E-05
1.324,   2.364E-05
1.325,   2.389E-05
1.326,   2.415E-05
1.327,   2.443E-05
1.328,   2.462E-05
1.329,   2.490E-05
1.33,   2.523E-05
1.331,   2.552E-05
1.332,   2.584E-05
1.333,   2.613E-05
1.334,   2.644E-05
1.335,   2.679E-05
1.336,   2.710E-05
1.337,   2.746E-05
1.338,   2.786E-05
1.339,   2.823E-05
1.34,   2.862E-05
1.341,   2.898E-05
1.342,   2.941E-05
1.343,   2.985E-05
1.344,   3.025E-05
1.345,   3.073E-05
1.346,   3.119E-05
1.347,   3.165E-05
1.348,   3.221E-05
1.349,   3.272E-05
1.35,   3.326E-05
1.351,   3.387E-05
1.352,   3.445E-05
1.353,   3.504E-05
1.354,   3.571E-05
1.355,   3.636E-05
1.356,   3.708E-05
1.357,   3.778E-05
1.358,   3.851E-05
1.359,   3.932E-05
1.36,   4.005E-05
1.361,   4.094E-05
1.362,   4.187E-05
1.363,   4.277E-05
1.364,   4.377E-05
1.365,   4.487E-05
1.366,   4.596E-05
1.367,   4.716E-05
1.368,   4.836E-05
1.369,   4.969E-05
1.37,   5.107E-05
1.371,   5.252E-05
1.372,   5.406E-05
1.373,   5.571E-05
1.374,   5.747E-05
1.375,   5.926E-05
1.376,   6.126E-05
1.377,   6.347E-05
1.378,   6.561E-05
1.379,   6.799E-05
1.38,   7.055E-05
1.381,   7.327E-05
1.382,   7.622E-05
1.383,   7.940E-05
1.384,   8.285E-05
1.385,   8.642E-05
1.386,   9.022E-05
1.387,   9.422E-05
1.388,   9.867E-05
1.389,   1.034E-04
1.39,   1.084E-04
1.391,   1.138E-04
1.392,   1.197E-04
1.393,   1.260E-04
1.394,   1.328E-04
1.395,   1.398E-04
1.396,   1.475E-04
1.397,   1.555E-04
1.398,   1.641E-04
1.399,   1.730E-04
1.4,   1.823E-04
1.401,   1.919E-04
1.402,   2.017E-04
1.403,   2.115E-04
1.404,   2.212E-04
1.405,   2.309E-04
1.406,   2.404E-04
1.407,   2.494E-04
1.408,   2.577E-04
1.409,   2.652E-04
1.41,   2.717E-04
1.411,   2.776E-04
1.412,   2.830E-04
1.413,   2.878E-04
1.414,   2.930E-04
1.415,   2.981E-04
1.416,   3.037E-04
1.417,   3.102E-04
1.418,   3.172E-04
1.419,   3.253E-04
1.42,   3.343E-04
1.421,   3.443E-04
1.422,   3.548E-04
1.423,   3.667E-04
1.424,   3.794E-04
1.425,   3.933E-04
1.426,   4.086E-04
1.427,   4.247E-04
1.428,   4.417E-04
1.429,   4.599E-04
1.43,   4.788E-04
1.431,   4.988E-04
1.432,   5.197E-04
1.433,   5.411E-04
1.434,   5.631E-04
1.435,   5.860E-04
1.436,   6.102E-04
1.437,   6.346E-04
1.438,   6.603E-04
1.439,   6.866E-04
1.44,   7.129E-04
1.441,   7.403E-04
1.442,   7.679E-04
1.443,   7.961E-04
1.444,   8.250E-04
1.445,   8.539E-04
1.446,   8.831E-04
1.447,   9.126E-04
1.448,   9.420E-04
1.449,   9.720E-04
1.45,   1.003E-03
1.451,   1.034E-03
1.452,   1.065E-03
1.453,   1.095E-03
1.454,   1.127E-03
1.455,   1.157E-03
1.456,   1.188E-03
1.457,   1.218E-03
1.458,   1.250E-03
1.459,   1.281E-03
1.46,   1.313E-03
1.461,   1.343E-03
1.462,   1.374E-03
1.463,   1.403E-03
1.464,   1.434E-03
1.465,   1.464E-03
1.466,   1.495E-03
1.467,   1.524E-03
1.468,   1.554E-03
1.469,   1.582E-03
1.47,   1.612E-03
1.471,   1.639E-03
1.472,   1.666E-03
1.473,   1.693E-03
1.474,   1.719E-03
1.475,   1.745E-03
1.476,   1.770E-03
1.477,   1.795E-03
1.478,   1.817E-03
1.479,   1.838E-03
1.48,   1.859E-03
1.481,   1.877E-03
1.482,   1.892E-03
1.483,   1.906E-03
1.484,   1.917E-03
1.485,   1.925E-03
1.486,   1.931E-03
1.487,   1.936E-03
1.488,   1.938E-03
1.489,   1.938E-03
1.49,   1.937E-03
1.491,   1.936E-03
1.492,   1.932E-03
1.493,   1.930E-03
1.494,   1.928E-03
1.495,   1.927E-03
1.496,   1.927E-03
1.497,   1.926E-03
1.498,   1.926E-03
1.499,   1.927E-03
1.5,   1.928E-03
1.501,   1.930E-03
1.502,   1.933E-03
1.503,   1.935E-03
1.504,   1.938E-03
1.505,   1.942E-03
1.506,   1.946E-03
1.507,   1.949E-03
1.508,   1.952E-03
1.509,   1.956E-03
1.51,   1.958E-03
1.511,   1.961E-03
1.512,   1.963E-03
1.513,   1.963E-03
1.514,   1.963E-03
1.515,   1.964E-03
1.516,   1.964E-03
1.517,   1.963E-03
1.518,   1.961E-03
1.519,   1.960E-03
1.52,   1.958E-03
1.521,   1.958E-03
1.522,   1.956E-03
1.523,   1.952E-03
1.524,   1.948E-03
1.525,   1.946E-03
1.526,   1.943E-03
1.527,   1.940E-03