File: Experimental Records and Raw Data/batch4/final500/B4_VARIANCE_500_#7_High_Quality(#31)-316mV.txt
Mar. 28, 2023   12:28:29
Linear Sweep Voltammetry
File: d:\current work\al_oer\electrochemical test data\batch 4\500\B4_VARIANCE_500_#7_High_Quality(#31)-316mV.txt
Data Source:  Experiment
Instrument Model:  CHI660E
Header:
Note:

Init E (V) = 1.096

Final E (V) = 1.667

Scan Rate (V/s) = 0.010
Sample Interval (V) = 0.001
Quiet Time (sec) = 2
Sensitivity (A/V) = 0.001
Comp R (ohm) = 5.4

Results:

Channel 1:
Ep = 1.308V
ip = 2.159e-3A
Ah = 2.582e-2C

Potential/V, Current/A
1.096,   1.594e-4
1.097,   1.504e-4
1.098,   1.420e-4
1.099,   1.343e-4
1.100,   1.275e-4
1.101,   1.216e-4
1.102,   1.162e-4
1.103,   1.115e-4
1.104,   1.071e-4
1.105,   1.033e-4
1.106,   9.983e-5
1.107,   9.640e-5
1.108,   9.338e-5
1.109,   9.069e-5
1.110,   8.840e-5
1.111,   8.625e-5
1.112,   8.423e-5
1.113,   8.235e-5
1.114,   8.060e-5
1.115,   7.888e-5
1.116,   7.734e-5
1.117,   7.603e-5
1.118,   7.471e-5
1.119,   7.348e-5
1.120,   7.218e-5
1.121,   7.095e-5
1.122,   6.997e-5
1.123,   6.898e-5
1.124,   6.808e-5
1.125,   6.724e-5
1.126,   6.644e-5
1.127,   6.558e-5
1.128,   6.480e-5
1.129,   6.423e-5
1.130,   6.364e-5
1.131,   6.306e-5
1.132,   6.250e-5
1.133,   6.195e-5
1.134,   6.145e-5
1.135,   6.098e-5
1.136,   6.051e-5
1.137,   6.009e-5
1.138,   5.972e-5
1.139,   5.930e-5
1.140,   5.891e-5
1.141,   5.843e-5
1.142,   5.812e-5
1.143,   5.789e-5
1.144,   5.759e-5
1.145,   5.728e-5
1.146,   5.702e-5
1.147,   5.672e-5
1.148,   5.645e-5
1.149,   5.621e-5
1.150,   5.589e-5
1.151,   5.564e-5
1.152,   5.540e-5
1.153,   5.520e-5
1.154,   5.499e-5
1.155,   5.477e-5
1.156,   5.467e-5
1.157,   5.449e-5
1.158,   5.438e-5
1.159,   5.431e-5
1.160,   5.414e-5
1.161,   5.408e-5
1.162,   5.394e-5
1.163,   5.393e-5
1.164,   5.393e-5
1.165,   5.378e-5
1.166,   5.366e-5
1.167,   5.358e-5
1.168,   5.354e-5
1.169,   5.346e-5
1.170,   5.336e-5
1.171,   5.330e-5
1.172,   5.338e-5
1.173,   5.332e-5
1.174,   5.331e-5
1.175,   5.330e-5
1.176,   5.329e-5
1.177,   5.332e-5
1.178,   5.340e-5
1.179,   5.348e-5
1.180,   5.353e-5
1.181,   5.355e-5
1.182,   5.355e-5
1.183,   5.364e-5
1.184,   5.357e-5
1.185,   5.355e-5
1.186,   5.360e-5
1.187,   5.361e-5
1.188,   5.359e-5
1.189,   5.360e-5
1.190,   5.366e-5
1.191,   5.368e-5
1.192,   5.366e-5
1.193,   5.373e-5
1.194,   5.380e-5
1.195,   5.379e-5
1.196,   5.387e-5
1.197,   5.393e-5
1.198,   5.397e-5
1.199,   5.404e-5
1.200,   5.404e-5
1.201,   5.410e-5
1.202,   5.412e-5
1.203,   5.417e-5
1.204,   5.428e-5
1.205,   5.430e-5
1.206,   5.435e-5
1.207,   5.447e-5
1.208,   5.448e-5
1.209,   5.459e-5
1.210,   5.467e-5
1.211,   5.470e-5
1.212,   5.482e-5
1.213,   5.495e-5
1.214,   5.511e-5
1.215,   5.525e-5
1.216,   5.530e-5
1.217,   5.545e-5
1.218,   5.555e-5
1.219,   5.564e-5
1.220,   5.578e-5
1.221,   5.586e-5
1.222,   5.592e-5
1.223,   5.606e-5
1.224,   5.610e-5
1.225,   5.623e-5
1.226,   5.635e-5
1.227,   5.644e-5
1.228,   5.660e-5
1.229,   5.665e-5
1.230,   5.673e-5
1.231,   5.679e-5
1.232,   5.681e-5
1.233,   5.690e-5
1.234,   5.699e-5
1.235,   5.712e-5
1.236,   5.726e-5
1.237,   5.739e-5
1.238,   5.757e-5
1.239,   5.768e-5
1.240,   5.773e-5
1.241,   5.780e-5
1.242,   5.787e-5
1.243,   5.787e-5
1.244,   5.801e-5
1.245,   5.815e-5
1.246,   5.819e-5
1.247,   5.838e-5
1.248,   5.850e-5
1.249,   5.862e-5
1.250,   5.873e-5
1.251,   5.889e-5
1.252,   5.911e-5
1.253,   5.923e-5
1.254,   5.934e-5
1.255,   5.948e-5
1.256,   5.953e-5
1.257,   5.975e-5
1.258,   5.974e-5
1.259,   5.977e-5
1.260,   5.990e-5
1.261,   6.006e-5
1.262,   6.029e-5
1.263,   6.047e-5
1.264,   6.061e-5
1.265,   6.078e-5
1.266,   6.101e-5
1.267,   6.096e-5
1.268,   6.106e-5
1.269,   6.120e-5
1.270,   6.133e-5
1.271,   6.143e-5
1.272,   6.155e-5
1.273,   6.171e-5
1.274,   6.179e-5
1.275,   6.196e-5
1.276,   6.219e-5
1.277,   6.238e-5
1.278,   6.254e-5
1.279,   6.278e-5
1.280,   6.300e-5
1.281,   6.331e-5
1.282,   6.368e-5
1.283,   6.405e-5
1.284,   6.423e-5
1.285,   6.434e-5
1.286,   6.444e-5
1.287,   6.463e-5
1.288,   6.474e-5
1.289,   6.505e-5
1.290,   6.529e-5
1.291,   6.548e-5
1.292,   6.582e-5
1.293,   6.597e-5
1.294,   6.614e-5
1.295,   6.640e-5
1.296,   6.663e-5
1.297,   6.689e-5
1.298,   6.716e-5
1.299,   6.749e-5
1.300,   6.784e-5
1.301,   6.806e-5
1.302,   6.829e-5
1.303,   6.869e-5
1.304,   6.890e-5
1.305,   6.929e-5
1.306,   6.954e-5
1.307,   6.978e-5
1.308,   7.018e-5
1.309,   7.047e-5
1.310,   7.080e-5
1.311,   7.123e-5
1.312,   7.153e-5
1.313,   7.196e-5
1.314,   7.237e-5
1.315,   7.262e-5
1.316,   7.304e-5
1.317,   7.341e-5
1.318,   7.391e-5
1.319,   7.431e-5
1.320,   7.467e-5
1.321,   7.537e-5
1.322,   7.609e-5
1.323,   7.649e-5
1.324,   7.701e-5
1.325,   7.742e-5
1.326,   7.775e-5
1.327,   7.821e-5
1.328,   7.860e-5
1.329,   7.904e-5
1.330,   7.954e-5
1.331,   7.989e-5
1.332,   8.035e-5
1.333,   8.086e-5
1.334,   8.140e-5
1.335,   8.184e-5
1.336,   8.233e-5
1.337,   8.307e-5
1.338,   8.367e-5
1.339,   8.428e-5
1.340,   8.500e-5
1.341,   8.563e-5
1.342,   8.637e-5
1.343,   8.715e-5
1.344,   8.796e-5
1.345,   8.872e-5
1.346,   8.945e-5
1.347,   9.002e-5
1.348,   9.074e-5
1.349,   9.164e-5
1.350,   9.243e-5
1.351,   9.322e-5
1.352,   9.406e-5
1.353,   9.495e-5
1.354,   9.580e-5
1.355,   9.670e-5
1.356,   9.775e-5
1.357,   9.881e-5
1.358,   9.974e-5
1.359,   1.009e-4
1.360,   1.020e-4
1.361,   1.031e-4
1.362,   1.042e-4
1.363,   1.054e-4
1.364,   1.068e-4
1.365,   1.082e-4
1.366,   1.096e-4
1.367,   1.111e-4
1.368,   1.126e-4
1.369,   1.143e-4
1.370,   1.159e-4
1.371,   1.178e-4
1.372,   1.198e-4
1.373,   1.215e-4
1.374,   1.231e-4
1.375,   1.250e-4
1.376,   1.272e-4
1.377,   1.292e-4
1.378,   1.315e-4
1.379,   1.340e-4
1.380,   1.366e-4
1.381,   1.392e-4
1.382,   1.421e-4
1.383,   1.450e-4
1.384,   1.481e-4
1.385,   1.516e-4
1.386,   1.552e-4
1.387,   1.588e-4
1.388,   1.628e-4
1.389,   1.669e-4
1.390,   1.711e-4
1.391,   1.757e-4
1.392,   1.804e-4
1.393,   1.854e-4
1.394,   1.907e-4
1.395,   1.962e-4
1.396,   2.023e-4
1.397,   2.086e-4
1.398,   2.153e-4
1.399,   2.223e-4
1.400,   2.293e-4
1.401,   2.371e-4
1.402,   2.452e-4
1.403,   2.537e-4
1.404,   2.628e-4
1.405,   2.723e-4
1.406,   2.823e-4
1.407,   2.926e-4
1.408,   3.031e-4
1.409,   3.143e-4
1.410,   3.261e-4
1.411,   3.384e-4
1.412,   3.513e-4
1.413,   3.642e-4
1.414,   3.782e-4
1.415,   3.931e-4
1.416,   4.082e-4
1.417,   4.240e-4
1.418,   4.402e-4
1.419,   4.569e-4
1.420,   4.744e-4
1.421,   4.922e-4
1.422,   5.109e-4
1.423,   5.301e-4
1.424,   5.503e-4
1.425,   5.710e-4
1.426,   5.925e-4
1.427,   6.140e-4
1.428,   6.361e-4
1.429,   6.587e-4
1.430,   6.821e-4
1.431,   7.062e-4
1.432,   7.311e-4
1.433,   7.567e-4
1.434,   7.825e-4
1.435,   8.090e-4
1.436,   8.354e-4
1.437,   8.632e-4
1.438,   8.915e-4
1.439,   9.194e-4
1.440,   9.478e-4
1.441,   9.768e-4
1.442,   1.006e-3
1.443,   1.037e-3
1.444,   1.067e-3
1.445,   1.097e-3
1.446,   1.129e-3
1.447,   1.160e-3
1.448,   1.191e-3
1.449,   1.222e-3
1.450,   1.255e-3
1.451,   1.286e-3
1.452,   1.317e-3
1.453,   1.349e-3
1.454,   1.381e-3
1.455,   1.413e-3
1.456,   1.445e-3
1.457,   1.476e-3
1.458,   1.507e-3
1.459,   1.537e-3
1.460,   1.568e-3
1.461,   1.599e-3
1.462,   1.631e-3
1.463,   1.661e-3
1.464,   1.689e-3
1.465,   1.717e-3
1.466,   1.746e-3
1.467,   1.774e-3
1.468,   1.802e-3
1.469,   1.830e-3
1.470,   1.855e-3
1.471,   1.881e-3
1.472,   1.905e-3
1.473,   1.929e-3
1.474,   1.951e-3
1.475,   1.972e-3
1.476,   1.993e-3
1.477,   2.013e-3
1.478,   2.033e-3
1.479,   2.052e-3
1.480,   2.069e-3
1.481,   2.087e-3
1.482,   2.104e-3
1.483,   2.119e-3
1.484,   2.133e-3
1.485,   2.146e-3
1.486,   2.160e-3
1.487,   2.171e-3
1.488,   2.180e-3
1.489,   2.192e-3
1.490,   2.200e-3
1.491,   2.208e-3
1.492,   2.216e-3
1.493,   2.220e-3
1.494,   2.225e-3
1.495,   2.229e-3
1.496,   2.233e-3
1.497,   2.237e-3
1.498,   2.241e-3
1.499,   2.244e-3
1.500,   2.245e-3
1.501,   2.245e-3
1.502,   2.246e-3
1.503,   2.248e-3
1.504,   2.246e-3
1.505,   2.245e-3
1.506,   2.239e-3
1.507,   2.239e-3
1.508,   2.234e-3
1.509,   2.231e-3
1.510,   2.228e-3
1.511,   2.223e-3
1.512,   2.219e-3
1.513,   2.214e-3
1.514,   2.210e-3
1.515,   2.203e-3
1.516,   2.197e-3
1.517,   2.192e-3
1.518,   2.186e-3
1.519,   2.181e-3
1.520,   2.172e-3
1.521,   2.166e-3
1.522,   2.158e-3
1.523,   2.151e-3
1.524,   2.143e-3
1.525,   2.134e-3
1.526,   2.125e-3
1.527,   2.116e-3
1.528,   2.109e-3
1.529,   2.103e-3
1.530,   2.095e-3
1.531,   2.088e-3
1.532,   2.080e-3
1.533,   2.072e-3
1.534,   2.065e-3
1.535,   2.057e-3
1.536,   2.050e-3
1.537,   2.040e-3
1.538,   2.032e-3
1.539,   2.025e-3
1.540,   2.017e-3
1.541,   2.008e-3
1.542,   2.000e-3
1.543,   1.994e-3
1.544,   1.989e-3
1.545,   1.980e-3
1.546,   1.973e-3
1.547,   1.964e-3
1.548,   1.956e-3
1.549,   1.948e-3
1.550,   1.940e-3
1.551,   1.934e-3
1.552,   1.927e-3
1.553,   1.919e-3
1.554,   1.914e-3
1.555,   1.908e-3
1.556,   1.901e-3
1.557,   1.895e-3
1.558,   1.889e-3
1.559,   1.883e-3
1.560,   1.876e-3
1.561,   1.866e-3
1.562,   1.860e-3
1.563,   1.854e-3
1.564,   1.847e-3
1.565,   1.841e-3
1.566,   1.833e-3
1.567,   1.828e-3
1.568,   1.823e-3
1.569,   1.818e-3
1.570,   1.810e-3
1.571,   1.802e-3
1.572,   1.796e-3
1.573,   1.790e-3
1.574,   1.784e-3
1.575,   1.779e-3
1.576,   1.774e-3
1.577,   1.767e-3
1.578,   1.763e-3
1.579,   1.756e-3
1.580,   1.752e-3
1.581,   1.747e-3
1.582,   1.743e-3
1.583,   1.738e-3
1.584,   1.733e-3
1.585,   1.729e-3
1.586,   1.724e-3
1.587,   1.718e-3
1.588,   1.714e-3
1.589,   1.709e-3
1.590,   1.705e-3
1.591,   1.701e-3
1.592,   1.697e-3
1.593,   1.691e-3
1.594,   1.688e-3
1.595,   1.681e-3
1.596,   1.676e-3
1.597,   1.671e-3
1.598,   1.666e-3
1.599,   1.662e-3
1.600,   1.656e-3
1.601,   1.650e-3
1.602,   1.646e-3
1.603,   1.642e-3
1.604,   1.639e-3
1.605,   1.634e-3
1.606,   1.630e-3
1.607,   1.624e-3
1.608,   1.621e-3
1.609,   1.617e-3
1.610,   1.613e-3
1.611,   1.612e-3
1.612,   1.607e-3
1.613,   1.604e-3
1.614,   1.601e-3
1.615,   1.598e-3
1.616,   1.591e-3
1.617,   1.585e-3
1.618,   1.581e-3
1.619,   1.578e-3
1.620,   1.574e-3
1.621,   1.571e-3
1.622,   1.569e-3
1.623,   1.566e-3
1.624,   1.560e-3
1.625,   1.558e-3
1.626,   1.552e-3
1.627,   1.549e-3
1.628,   1.545e-3
1.629,   1.539e-3
1.630,   1.537e-3
1.631,   1.533e-3
1.632,   1.531e-3
1.633,   1.528e-3
1.634,   1.523e-3
1.635,   1.519e-3
1.636,   1.515e-3
1.637,   1.509e-3
1.638,   1.505e-3
1.639,   1.502e-3
1.640,   1.496e-3
1.641,   1.493e-3
1.642,   1.491e-3
1.643,   1.488e-3
1.644,   1.485e-3
1.645,   1.481e-3
1.646,   1.478e-3
1.647,   1.476e-3
1.648,   1.475e-3
1.649,   1.469e-3
1.650,   1.467e-3
1.651,   1.462e-3
1.652,   1.455e-3
1.653,   1.452e-3
1.654,   1.448e-3
1.655,   1.445e-3
1.656,   1.441e-3
1.657,   1.438e-3
1.658,   1.435e-3
1.659,   1.432e-3
1.660,   1.429e-3
1.661,   1.426e-3
1.662,   1.423e-3
1.663,   1.420e-3
1.664,   1.417e-3
1.665,   1.413e-3
1.666,   1.408e-3
1.667,   1.405e-3