File: Experimental Records and Raw Data/batch4/final500/B4_VARIANCE_500_#8_Full(#16)-363mV.txt
Mar. 28, 2023   13:52:42
Linear Sweep Voltammetry
File: d:\current work\al_oer\electrochemical test data\batch 4\500\B4_VARIANCE_500_#8_Full(#16)-363mV.txt
Data Source:  Experiment
Instrument Model:  CHI660E
Header:
Note:

Init E (V) = 1.104

Final E (V) = 1.619

Scan Rate (V/s) = 0.010
Sample Interval (V) = 0.001
Quiet Time (sec) = 2
Sensitivity (A/V) = 0.001
Comp R (ohm) = 4.7

Results:

Channel 1:

Potential/V, Current/A
1.104,   3.594E-04
1.105,   3.410E-04
1.106,   3.241E-04
1.107,   3.086E-04
1.108,   2.952E-04
1.109,   2.823E-04
1.11,   2.707E-04
1.111,   2.603E-04
1.112,   2.513E-04
1.113,   2.426E-04
1.114,   2.349E-04
1.115,   2.280E-04
1.116,   2.217E-04
1.117,   2.159E-04
1.118,   2.107E-04
1.119,   2.058E-04
1.12,   2.013E-04
1.121,   1.975E-04
1.122,   1.935E-04
1.123,   1.898E-04
1.124,   1.865E-04
1.125,   1.832E-04
1.126,   1.800E-04
1.127,   1.772E-04
1.128,   1.750E-04
1.129,   1.726E-04
1.13,   1.702E-04
1.131,   1.681E-04
1.132,   1.662E-04
1.133,   1.643E-04
1.134,   1.625E-04
1.135,   1.608E-04
1.136,   1.590E-04
1.137,   1.575E-04
1.138,   1.564E-04
1.139,   1.554E-04
1.14,   1.540E-04
1.141,   1.525E-04
1.142,   1.514E-04
1.143,   1.505E-04
1.144,   1.492E-04
1.145,   1.483E-04
1.146,   1.475E-04
1.147,   1.464E-04
1.148,   1.457E-04
1.149,   1.449E-04
1.15,   1.443E-04
1.151,   1.436E-04
1.152,   1.429E-04
1.153,   1.420E-04
1.154,   1.415E-04
1.155,   1.408E-04
1.156,   1.404E-04
1.157,   1.398E-04
1.158,   1.392E-04
1.159,   1.389E-04
1.16,   1.384E-04
1.161,   1.379E-04
1.162,   1.375E-04
1.163,   1.372E-04
1.164,   1.368E-04
1.165,   1.363E-04
1.166,   1.360E-04
1.167,   1.355E-04
1.168,   1.349E-04
1.169,   1.349E-04
1.17,   1.347E-04
1.171,   1.343E-04
1.172,   1.341E-04
1.173,   1.337E-04
1.174,   1.334E-04
1.175,   1.333E-04
1.176,   1.332E-04
1.177,   1.330E-04
1.178,   1.326E-04
1.179,   1.323E-04
1.18,   1.323E-04
1.181,   1.321E-04
1.182,   1.318E-04
1.183,   1.316E-04
1.184,   1.315E-04
1.185,   1.314E-04
1.186,   1.313E-04
1.187,   1.312E-04
1.188,   1.312E-04
1.189,   1.310E-04
1.19,   1.309E-04
1.191,   1.309E-04
1.192,   1.307E-04
1.193,   1.310E-04
1.194,   1.309E-04
1.195,   1.305E-04
1.196,   1.305E-04
1.197,   1.304E-04
1.198,   1.303E-04
1.199,   1.301E-04
1.2,   1.302E-04
1.201,   1.304E-04
1.202,   1.304E-04
1.203,   1.306E-04
1.204,   1.305E-04
1.205,   1.303E-04
1.206,   1.308E-04
1.207,   1.304E-04
1.208,   1.303E-04
1.209,   1.305E-04
1.21,   1.304E-04
1.211,   1.304E-04
1.212,   1.305E-04
1.213,   1.304E-04
1.214,   1.306E-04
1.215,   1.308E-04
1.216,   1.309E-04
1.217,   1.311E-04
1.218,   1.311E-04
1.219,   1.312E-04
1.22,   1.312E-04
1.221,   1.313E-04
1.222,   1.314E-04
1.223,   1.315E-04
1.224,   1.316E-04
1.225,   1.318E-04
1.226,   1.318E-04
1.227,   1.320E-04
1.228,   1.324E-04
1.229,   1.324E-04
1.23,   1.327E-04
1.231,   1.330E-04
1.232,   1.331E-04
1.233,   1.333E-04
1.234,   1.336E-04
1.235,   1.337E-04
1.236,   1.339E-04
1.237,   1.343E-04
1.238,   1.343E-04
1.239,   1.348E-04
1.24,   1.351E-04
1.241,   1.351E-04
1.242,   1.353E-04
1.243,   1.355E-04
1.244,   1.357E-04
1.245,   1.361E-04
1.246,   1.365E-04
1.247,   1.367E-04
1.248,   1.368E-04
1.249,   1.373E-04
1.25,   1.378E-04
1.251,   1.380E-04
1.252,   1.384E-04
1.253,   1.388E-04
1.254,   1.393E-04
1.255,   1.393E-04
1.256,   1.393E-04
1.257,   1.400E-04
1.258,   1.403E-04
1.259,   1.406E-04
1.26,   1.409E-04
1.261,   1.413E-04
1.262,   1.416E-04
1.263,   1.421E-04
1.264,   1.423E-04
1.265,   1.426E-04
1.266,   1.430E-04
1.267,   1.431E-04
1.268,   1.439E-04
1.269,   1.443E-04
1.27,   1.448E-04
1.271,   1.452E-04
1.272,   1.462E-04
1.273,   1.461E-04
1.274,   1.467E-04
1.275,   1.471E-04
1.276,   1.476E-04
1.277,   1.481E-04
1.278,   1.488E-04
1.279,   1.493E-04
1.28,   1.494E-04
1.281,   1.500E-04
1.282,   1.506E-04
1.283,   1.510E-04
1.284,   1.515E-04
1.285,   1.517E-04
1.286,   1.524E-04
1.287,   1.531E-04
1.288,   1.535E-04
1.289,   1.544E-04
1.29,   1.552E-04
1.291,   1.560E-04
1.292,   1.563E-04
1.293,   1.569E-04
1.294,   1.575E-04
1.295,   1.583E-04
1.296,   1.586E-04
1.297,   1.594E-04
1.298,   1.600E-04
1.299,   1.606E-04
1.3,   1.615E-04
1.301,   1.623E-04
1.302,   1.632E-04
1.303,   1.641E-04
1.304,   1.646E-04
1.305,   1.651E-04
1.306,   1.658E-04
1.307,   1.666E-04
1.308,   1.672E-04
1.309,   1.679E-04
1.31,   1.685E-04
1.311,   1.696E-04
1.312,   1.702E-04
1.313,   1.710E-04
1.314,   1.718E-04
1.315,   1.726E-04
1.316,   1.735E-04
1.317,   1.745E-04
1.318,   1.751E-04
1.319,   1.759E-04
1.32,   1.765E-04
1.321,   1.776E-04
1.322,   1.783E-04
1.323,   1.791E-04
1.324,   1.800E-04
1.325,   1.807E-04
1.326,   1.817E-04
1.327,   1.831E-04
1.328,   1.839E-04
1.329,   1.849E-04
1.33,   1.858E-04
1.331,   1.865E-04
1.332,   1.875E-04
1.333,   1.885E-04
1.334,   1.897E-04
1.335,   1.910E-04
1.336,   1.918E-04
1.337,   1.925E-04
1.338,   1.934E-04
1.339,   1.945E-04
1.34,   1.956E-04
1.341,   1.970E-04
1.342,   1.980E-04
1.343,   1.988E-04
1.344,   2.001E-04
1.345,   2.011E-04
1.346,   2.020E-04
1.347,   2.029E-04
1.348,   2.043E-04
1.349,   2.056E-04
1.35,   2.066E-04
1.351,   2.080E-04
1.352,   2.090E-04
1.353,   2.105E-04
1.354,   2.115E-04
1.355,   2.128E-04
1.356,   2.141E-04
1.357,   2.157E-04
1.358,   2.172E-04
1.359,   2.189E-04
1.36,   2.203E-04
1.361,   2.221E-04
1.362,   2.239E-04
1.363,   2.257E-04
1.364,   2.274E-04
1.365,   2.290E-04
1.366,   2.308E-04
1.367,   2.331E-04
1.368,   2.350E-04
1.369,   2.368E-04
1.37,   2.386E-04
1.371,   2.413E-04
1.372,   2.435E-04
1.373,   2.460E-04
1.374,   2.489E-04
1.375,   2.511E-04
1.376,   2.544E-04
1.377,   2.569E-04
1.378,   2.597E-04
1.379,   2.624E-04
1.38,   2.654E-04
1.381,   2.682E-04
1.382,   2.718E-04
1.383,   2.763E-04
1.384,   2.791E-04
1.385,   2.824E-04
1.386,   2.861E-04
1.387,   2.901E-04
1.388,   2.945E-04
1.389,   2.984E-04
1.39,   3.027E-04
1.391,   3.075E-04
1.392,   3.126E-04
1.393,   3.176E-04
1.394,   3.226E-04
1.395,   3.278E-04
1.396,   3.334E-04
1.397,   3.388E-04
1.398,   3.447E-04
1.399,   3.510E-04
1.4,   3.579E-04
1.401,   3.641E-04
1.402,   3.711E-04
1.403,   3.784E-04
1.404,   3.866E-04
1.405,   3.945E-04
1.406,   4.032E-04
1.407,   4.108E-04
1.408,   4.191E-04
1.409,   4.284E-04
1.41,   4.372E-04
1.411,   4.472E-04
1.412,   4.565E-04
1.413,   4.660E-04
1.414,   4.753E-04
1.415,   4.857E-04
1.416,   4.961E-04
1.417,   5.073E-04
1.418,   5.187E-04
1.419,   5.300E-04
1.42,   5.416E-04
1.421,   5.533E-04
1.422,   5.645E-04
1.423,   5.767E-04
1.424,   5.879E-04
1.425,   5.996E-04
1.426,   6.129E-04
1.427,   6.246E-04
1.428,   6.368E-04
1.429,   6.480E-04
1.43,   6.597E-04
1.431,   6.709E-04
1.432,   6.826E-04
1.433,   6.937E-04
1.434,   7.055E-04
1.435,   7.161E-04
1.436,   7.267E-04
1.437,   7.379E-04
1.438,   7.501E-04
1.439,   7.597E-04
1.44,   7.693E-04
1.441,   7.794E-04
1.442,   7.900E-04
1.443,   7.996E-04
1.444,   8.076E-04
1.445,   8.156E-04
1.446,   8.246E-04
1.447,   8.331E-04
1.448,   8.401E-04
1.449,   8.464E-04
1.45,   8.534E-04
1.451,   8.592E-04
1.452,   8.651E-04
1.453,   8.688E-04
1.454,   8.736E-04
1.455,   8.778E-04
1.456,   8.821E-04
1.457,   8.847E-04
1.458,   8.879E-04
1.459,   8.901E-04
1.46,   8.927E-04
1.461,   8.949E-04
1.462,   8.991E-04
1.463,   9.023E-04
1.464,   9.044E-04
1.465,   9.066E-04
1.466,   9.082E-04
1.467,   9.124E-04
1.468,   9.135E-04
1.469,   9.172E-04
1.47,   9.220E-04
1.471,   9.257E-04
1.472,   9.326E-04
1.473,   9.390E-04
1.474,   9.465E-04
1.475,   9.496E-04
1.476,   9.560E-04
1.477,   9.608E-04
1.478,   9.656E-04
1.479,   9.741E-04
1.48,   9.805E-04
1.481,   9.901E-04
1.482,   9.991E-04
1.483,   1.004E-03
1.484,   1.013E-03
1.485,   1.024E-03
1.486,   1.034E-03
1.487,   1.048E-03
1.488,   1.059E-03
1.489,   1.071E-03
1.49,   1.082E-03
1.491,   1.094E-03
1.492,   1.106E-03
1.493,   1.118E-03
1.494,   1.130E-03
1.495,   1.141E-03
1.496,   1.152E-03
1.497,   1.164E-03
1.498,   1.172E-03
1.499,   1.181E-03
1.5,   1.194E-03
1.501,   1.207E-03
1.502,   1.217E-03
1.503,   1.227E-03
1.504,   1.238E-03
1.505,   1.250E-03
1.506,   1.263E-03
1.507,   1.272E-03
1.508,   1.285E-03
1.509,   1.297E-03
1.51,   1.311E-03
1.511,   1.323E-03
1.512,   1.335E-03
1.513,   1.349E-03
1.514,   1.362E-03
1.515,   1.384E-03
1.516,   1.405E-03
1.517,   1.427E-03
1.518,   1.441E-03
1.519,   1.459E-03
1.52,   1.480E-03
1.521,   1.503E-03
1.522,   1.529E-03
1.523,   1.556E-03
1.524,   1.577E-03
1.525,   1.602E-03
1.526,   1.627E-03
1.527,   1.653E-03
1.528,   1.677E-03
1.529,   1.697E-03
1.53,   1.714E-03
1.531,   1.732E-03
1.532,   1.748E-03
1.533,   1.764E-03
1.534,   1.783E-03
1.535,   1.801E-03
1.536,   1.815E-03
1.537,   1.824E-03
1.538,   1.835E-03
1.539,   1.846E-03
1.54,   1.861E-03
1.541,   1.871E-03
1.542,   1.883E-03
1.543,   1.891E-03
1.544,   1.897E-03
1.545,   1.902E-03
1.546,   1.905E-03
1.547,   1.910E-03
1.548,   1.919E-03
1.549,   1.924E-03
1.55,   1.929E-03
1.551,   1.934E-03
1.552,   1.930E-03
1.553,   1.922E-03
1.554,   1.920E-03
1.555,   1.929E-03
1.556,   1.936E-03
1.557,   1.933E-03
1.558,   1.935E-03
1.559,   1.939E-03
1.56,   1.940E-03
1.561,   1.947E-03
1.562,   1.961E-03
1.563,   1.951E-03
1.564,   1.945E-03
1.565,   1.949E-03
1.566,   1.956E-03
1.567,   1.960E-03
1.568,   1.950E-03
1.569,   1.945E-03
1.57,   1.947E-03
1.571,   1.952E-03
1.572,   1.956E-03
1.573,   1.958E-03
1.574,   1.962E-03
1.575,   1.956E-03
1.576,   1.950E-03
1.577,   1.943E-03
1.578,   1.945E-03
1.579,   1.956E-03
1.58,   1.956E-03
1.581,   1.956E-03
1.582,   1.957E-03
1.583,   1.958E-03
1.584,   1.956E-03
1.585,   1.958E-03
1.586,   1.960E-03
1.587,   1.959E-03
1.588,   1.963E-03
1.589,   1.962E-03
1.59,   1.959E-03
1.591,   1.971E-03
1.592,   1.965E-03
1.593,   1.967E-03
1.594,   1.973E-03
1.595,   1.966E-03
1.596,   1.959E-03
1.597,   1.959E-03
1.598,   1.956E-03
1.599,   1.955E-03
1.6,   1.944E-03
1.601,   1.936E-03
1.602,   1.942E-03
1.603,   1.941E-03
1.604,   1.937E-03
1.605,   1.934E-03
1.606,   1.937E-03
1.607,   1.938E-03
1.608,   1.939E-03
1.609,   1.939E-03
1.61,   1.935E-03
1.611,   1.926E-03
1.612,   1.927E-03
1.613,   1.927E-03
1.614,   1.923E-03
1.615,   1.920E-03
1.616,   1.916E-03
1.617,   1.913E-03
1.618,   1.909E-03
1.619,   1.904E-03