File: Experimental Records, Raw Data, and Supplementary Notes and Figures/batch4/final500/B4_BEST_500_#4_High_Quality(#20)-242mV.txt
Mar. 29, 2023   12:52:33
Linear Sweep Voltammetry
File: d:\current work\al_oer\electrochemical test data\batch 4\500\B4_BEST_500_#4_High_Quality(#20)-242mV.txt
Data Source:  Experiment
Instrument Model:  CHI660E
Header:
Note:

Init E (V) = 1.098

Final E (V) = 1.564

Scan Rate (V/s) = 0.010
Sample Interval (V) = 0.001
Quiet Time (sec) = 2
Sensitivity (A/V) = 0.001
Comp R (ohm) = 6.5

Results:

Channel 1:

Potential/V, Current/A
1.098,   1.200e-3
1.099,   1.087e-3
1.100,   9.860e-4
1.101,   8.979e-4
1.102,   8.197e-4
1.103,   7.517e-4
1.104,   6.924e-4
1.105,   6.430e-4
1.106,   5.997e-4
1.107,   5.616e-4
1.108,   5.271e-4
1.109,   4.997e-4
1.110,   4.741e-4
1.111,   4.504e-4
1.112,   4.292e-4
1.113,   4.100e-4
1.114,   3.933e-4
1.115,   3.782e-4
1.116,   3.645e-4
1.117,   3.513e-4
1.118,   3.404e-4
1.119,   3.308e-4
1.120,   3.220e-4
1.121,   3.130e-4
1.122,   3.043e-4
1.123,   2.948e-4
1.124,   2.872e-4
1.125,   2.807e-4
1.126,   2.754e-4
1.127,   2.707e-4
1.128,   2.660e-4
1.129,   2.612e-4
1.130,   2.564e-4
1.131,   2.526e-4
1.132,   2.487e-4
1.133,   2.447e-4
1.134,   2.415e-4
1.135,   2.383e-4
1.136,   2.353e-4
1.137,   2.324e-4
1.138,   2.292e-4
1.139,   2.262e-4
1.140,   2.237e-4
1.141,   2.211e-4
1.142,   2.189e-4
1.143,   2.167e-4
1.144,   2.149e-4
1.145,   2.133e-4
1.146,   2.113e-4
1.147,   2.100e-4
1.148,   2.082e-4
1.149,   2.065e-4
1.150,   2.053e-4
1.151,   2.037e-4
1.152,   2.022e-4
1.153,   2.010e-4
1.154,   1.996e-4
1.155,   1.985e-4
1.156,   1.973e-4
1.157,   1.967e-4
1.158,   1.960e-4
1.159,   1.951e-4
1.160,   1.943e-4
1.161,   1.925e-4
1.162,   1.912e-4
1.163,   1.909e-4
1.164,   1.904e-4
1.165,   1.899e-4
1.166,   1.897e-4
1.167,   1.892e-4
1.168,   1.885e-4
1.169,   1.879e-4
1.170,   1.876e-4
1.171,   1.873e-4
1.172,   1.870e-4
1.173,   1.866e-4
1.174,   1.866e-4
1.175,   1.866e-4
1.176,   1.866e-4
1.177,   1.867e-4
1.178,   1.866e-4
1.179,   1.865e-4
1.180,   1.865e-4
1.181,   1.860e-4
1.182,   1.861e-4
1.183,   1.863e-4
1.184,   1.863e-4
1.185,   1.864e-4
1.186,   1.862e-4
1.187,   1.866e-4
1.188,   1.865e-4
1.189,   1.865e-4
1.190,   1.867e-4
1.191,   1.869e-4
1.192,   1.871e-4
1.193,   1.876e-4
1.194,   1.877e-4
1.195,   1.879e-4
1.196,   1.883e-4
1.197,   1.884e-4
1.198,   1.888e-4
1.199,   1.890e-4
1.200,   1.892e-4
1.201,   1.896e-4
1.202,   1.900e-4
1.203,   1.905e-4
1.204,   1.907e-4
1.205,   1.911e-4
1.206,   1.916e-4
1.207,   1.917e-4
1.208,   1.922e-4
1.209,   1.927e-4
1.210,   1.928e-4
1.211,   1.932e-4
1.212,   1.935e-4
1.213,   1.937e-4
1.214,   1.942e-4
1.215,   1.945e-4
1.216,   1.950e-4
1.217,   1.955e-4
1.218,   1.958e-4
1.219,   1.963e-4
1.220,   1.967e-4
1.221,   1.972e-4
1.222,   1.979e-4
1.223,   1.982e-4
1.224,   1.991e-4
1.225,   1.996e-4
1.226,   1.999e-4
1.227,   2.003e-4
1.228,   2.008e-4
1.229,   2.012e-4
1.230,   2.015e-4
1.231,   2.018e-4
1.232,   2.024e-4
1.233,   2.032e-4
1.234,   2.040e-4
1.235,   2.050e-4
1.236,   2.062e-4
1.237,   2.066e-4
1.238,   2.064e-4
1.239,   2.070e-4
1.240,   2.080e-4
1.241,   2.091e-4
1.242,   2.095e-4
1.243,   2.098e-4
1.244,   2.104e-4
1.245,   2.111e-4
1.246,   2.123e-4
1.247,   2.129e-4
1.248,   2.136e-4
1.249,   2.145e-4
1.250,   2.152e-4
1.251,   2.161e-4
1.252,   2.169e-4
1.253,   2.179e-4
1.254,   2.190e-4
1.255,   2.200e-4
1.256,   2.209e-4
1.257,   2.217e-4
1.258,   2.221e-4
1.259,   2.233e-4
1.260,   2.241e-4
1.261,   2.247e-4
1.262,   2.255e-4
1.263,   2.262e-4
1.264,   2.270e-4
1.265,   2.280e-4
1.266,   2.289e-4
1.267,   2.296e-4
1.268,   2.304e-4
1.269,   2.313e-4
1.270,   2.324e-4
1.271,   2.333e-4
1.272,   2.343e-4
1.273,   2.353e-4
1.274,   2.358e-4
1.275,   2.369e-4
1.276,   2.380e-4
1.277,   2.389e-4
1.278,   2.401e-4
1.279,   2.410e-4
1.280,   2.420e-4
1.281,   2.430e-4
1.282,   2.437e-4
1.283,   2.446e-4
1.284,   2.456e-4
1.285,   2.466e-4
1.286,   2.475e-4
1.287,   2.480e-4
1.288,   2.486e-4
1.289,   2.495e-4
1.290,   2.499e-4
1.291,   2.510e-4
1.292,   2.520e-4
1.293,   2.525e-4
1.294,   2.533e-4
1.295,   2.540e-4
1.296,   2.549e-4
1.297,   2.560e-4
1.298,   2.570e-4
1.299,   2.580e-4
1.300,   2.592e-4
1.301,   2.598e-4
1.302,   2.606e-4
1.303,   2.613e-4
1.304,   2.618e-4
1.305,   2.628e-4
1.306,   2.635e-4
1.307,   2.644e-4
1.308,   2.653e-4
1.309,   2.659e-4
1.310,   2.671e-4
1.311,   2.679e-4
1.312,   2.692e-4
1.313,   2.701e-4
1.314,   2.704e-4
1.315,   2.712e-4
1.316,   2.719e-4
1.317,   2.728e-4
1.318,   2.738e-4
1.319,   2.747e-4
1.320,   2.761e-4
1.321,   2.775e-4
1.322,   2.780e-4
1.323,   2.792e-4
1.324,   2.802e-4
1.325,   2.810e-4
1.326,   2.820e-4
1.327,   2.831e-4
1.328,   2.840e-4
1.329,   2.849e-4
1.330,   2.859e-4
1.331,   2.871e-4
1.332,   2.884e-4
1.333,   2.895e-4
1.334,   2.908e-4
1.335,   2.915e-4
1.336,   2.929e-4
1.337,   2.939e-4
1.338,   2.949e-4
1.339,   2.962e-4
1.340,   2.977e-4
1.341,   2.989e-4
1.342,   3.005e-4
1.343,   3.019e-4
1.344,   3.029e-4
1.345,   3.038e-4
1.346,   3.049e-4
1.347,   3.065e-4
1.348,   3.080e-4
1.349,   3.093e-4
1.350,   3.113e-4
1.351,   3.129e-4
1.352,   3.142e-4
1.353,   3.158e-4
1.354,   3.171e-4
1.355,   3.186e-4
1.356,   3.204e-4
1.357,   3.224e-4
1.358,   3.239e-4
1.359,   3.256e-4
1.360,   3.267e-4
1.361,   3.290e-4
1.362,   3.317e-4
1.363,   3.340e-4
1.364,   3.362e-4
1.365,   3.381e-4
1.366,   3.407e-4
1.367,   3.432e-4
1.368,   3.458e-4
1.369,   3.488e-4
1.370,   3.520e-4
1.371,   3.551e-4
1.372,   3.583e-4
1.373,   3.618e-4
1.374,   3.659e-4
1.375,   3.700e-4
1.376,   3.740e-4
1.377,   3.785e-4
1.378,   3.827e-4
1.379,   3.878e-4
1.380,   3.928e-4
1.381,   3.979e-4
1.382,   4.035e-4
1.383,   4.087e-4
1.384,   4.149e-4
1.385,   4.212e-4
1.386,   4.275e-4
1.387,   4.347e-4
1.388,   4.423e-4
1.389,   4.495e-4
1.390,   4.576e-4
1.391,   4.658e-4
1.392,   4.745e-4
1.393,   4.838e-4
1.394,   4.931e-4
1.395,   5.029e-4
1.396,   5.126e-4
1.397,   5.226e-4
1.398,   5.335e-4
1.399,   5.448e-4
1.400,   5.561e-4
1.401,   5.673e-4
1.402,   5.784e-4
1.403,   5.898e-4
1.404,   6.022e-4
1.405,   6.139e-4
1.406,   6.265e-4
1.407,   6.401e-4
1.408,   6.533e-4
1.409,   6.662e-4
1.410,   6.762e-4
1.411,   6.898e-4
1.412,   7.041e-4
1.413,   7.186e-4
1.414,   7.331e-4
1.415,   7.479e-4
1.416,   7.633e-4
1.417,   7.792e-4
1.418,   7.946e-4
1.419,   8.105e-4
1.420,   8.270e-4
1.421,   8.431e-4
1.422,   8.610e-4
1.423,   8.789e-4
1.424,   8.967e-4
1.425,   9.152e-4
1.426,   9.335e-4
1.427,   9.520e-4
1.428,   9.699e-4
1.429,   9.885e-4
1.430,   1.008e-3
1.431,   1.027e-3
1.432,   1.047e-3
1.433,   1.067e-3
1.434,   1.087e-3
1.435,   1.107e-3
1.436,   1.128e-3
1.437,   1.148e-3
1.438,   1.156e-3
1.439,   1.171e-3
1.440,   1.192e-3
1.441,   1.214e-3
1.442,   1.237e-3
1.443,   1.260e-3
1.444,   1.284e-3
1.445,   1.308e-3
1.446,   1.333e-3
1.447,   1.358e-3
1.448,   1.383e-3
1.449,   1.408e-3
1.450,   1.433e-3
1.451,   1.458e-3
1.452,   1.484e-3
1.453,   1.510e-3
1.454,   1.535e-3
1.455,   1.560e-3
1.456,   1.584e-3
1.457,   1.608e-3
1.458,   1.632e-3
1.459,   1.655e-3
1.460,   1.677e-3
1.461,   1.700e-3
1.462,   1.723e-3
1.463,   1.744e-3
1.464,   1.765e-3
1.465,   1.786e-3
1.466,   1.806e-3
1.467,   1.828e-3
1.468,   1.851e-3
1.469,   1.871e-3
1.470,   1.893e-3
1.471,   1.915e-3
1.472,   1.939e-3
1.473,   1.962e-3
1.474,   1.987e-3
1.475,   2.013e-3
1.476,   2.037e-3
1.477,   2.063e-3
1.478,   2.090e-3
1.479,   2.118e-3
1.480,   2.146e-3
1.481,   2.175e-3
1.482,   2.205e-3
1.483,   2.236e-3
1.484,   2.270e-3
1.485,   2.302e-3
1.486,   2.334e-3
1.487,   2.359e-3
1.488,   2.381e-3
1.489,   2.413e-3
1.490,   2.448e-3
1.491,   2.483e-3
1.492,   2.517e-3
1.493,   2.552e-3
1.494,   2.590e-3
1.495,   2.626e-3
1.496,   2.665e-3
1.497,   2.700e-3
1.498,   2.741e-3
1.499,   2.781e-3
1.500,   2.810e-3
1.501,   2.830e-3
1.502,   2.870e-3
1.503,   2.910e-3
1.504,   2.951e-3
1.505,   2.992e-3
1.506,   3.034e-3
1.507,   3.075e-3
1.508,   3.116e-3
1.509,   3.158e-3
1.510,   3.201e-3
1.511,   3.240e-3
1.512,   3.273e-3
1.513,   3.298e-3
1.514,   3.326e-3
1.515,   3.369e-3
1.516,   3.411e-3
1.517,   3.438e-3
1.518,   3.422e-3
1.519,   3.457e-3
1.520,   3.498e-3
1.521,   3.540e-3
1.522,   3.581e-3
1.523,   3.621e-3
1.524,   3.661e-3
1.525,   3.699e-3
1.526,   3.721e-3
1.527,   3.758e-3
1.528,   3.796e-3
1.529,   3.828e-3
1.530,   3.867e-3
1.531,   3.900e-3
1.532,   3.932e-3
1.533,   3.969e-3
1.534,   4.005e-3
1.535,   4.042e-3
1.536,   4.086e-3
1.537,   4.127e-3
1.538,   4.161e-3
1.539,   4.173e-3
1.540,   4.193e-3
1.541,   4.228e-3
1.542,   4.264e-3
1.543,   4.301e-3
1.544,   4.339e-3
1.545,   4.378e-3
1.546,   4.415e-3
1.547,   4.449e-3
1.548,   4.485e-3
1.549,   4.523e-3
1.550,   4.561e-3
1.551,   4.590e-3
1.552,   4.623e-3
1.553,   4.660e-3
1.554,   4.694e-3
1.555,   4.732e-3
1.556,   4.770e-3
1.557,   4.802e-3
1.558,   4.839e-3
1.559,   4.873e-3
1.560,   4.908e-3
1.561,   4.947e-3
1.562,   4.991e-3
1.563,   5.026e-3
1.564,   5.058e-3