File: Experimental Records, Raw Data, and Supplementary Notes and Figures/batch4/final500/B4_BEST_500_#5_High_Quality(#21)-194mV.txt
Mar. 29, 2023   11:29:14
Linear Sweep Voltammetry
File: d:\current work\al_oer\electrochemical test data\batch 4\500\B4_BEST_500_#5_High_Quality(#21)-194mV.txt
Data Source:  Experiment
Instrument Model:  CHI660E
Header:
Note:

Init E (V) = 1.098

Final E (V) = 1.457

Scan Rate (V/s) = 0.010
Sample Interval (V) = 0.001
Quiet Time (sec) = 2
Sensitivity (A/V) = 0.001
Comp R (ohm) = 5.0

Results:

Channel 1:

Potential/V, Current/A
1.098,   1.742e-4
1.099,   2.087e-4
1.100,   2.013e-4
1.101,   1.926e-4
1.102,   1.862e-4
1.103,   1.806e-4
1.104,   1.753e-4
1.105,   1.715e-4
1.106,   1.678e-4
1.107,   1.644e-4
1.108,   1.617e-4
1.109,   1.588e-4
1.110,   1.570e-4
1.111,   1.548e-4
1.112,   1.532e-4
1.113,   1.520e-4
1.114,   1.499e-4
1.115,   1.487e-4
1.116,   1.484e-4
1.117,   1.465e-4
1.118,   1.468e-4
1.119,   1.463e-4
1.120,   1.446e-4
1.121,   1.445e-4
1.122,   1.435e-4
1.123,   1.429e-4
1.124,   1.432e-4
1.125,   1.423e-4
1.126,   1.423e-4
1.127,   1.420e-4
1.128,   1.416e-4
1.129,   1.420e-4
1.130,   1.414e-4
1.131,   1.417e-4
1.132,   1.421e-4
1.133,   1.412e-4
1.134,   1.416e-4
1.135,   1.418e-4
1.136,   1.415e-4
1.137,   1.423e-4
1.138,   1.420e-4
1.139,   1.418e-4
1.140,   1.427e-4
1.141,   1.423e-4
1.142,   1.430e-4
1.143,   1.432e-4
1.144,   1.434e-4
1.145,   1.440e-4
1.146,   1.438e-4
1.147,   1.443e-4
1.148,   1.452e-4
1.149,   1.446e-4
1.150,   1.452e-4
1.151,   1.461e-4
1.152,   1.459e-4
1.153,   1.469e-4
1.154,   1.470e-4
1.155,   1.471e-4
1.156,   1.484e-4
1.157,   1.486e-4
1.158,   1.491e-4
1.159,   1.495e-4
1.160,   1.498e-4
1.161,   1.509e-4
1.162,   1.507e-4
1.163,   1.513e-4
1.164,   1.526e-4
1.165,   1.520e-4
1.166,   1.531e-4
1.167,   1.539e-4
1.168,   1.538e-4
1.169,   1.552e-4
1.170,   1.553e-4
1.171,   1.560e-4
1.172,   1.569e-4
1.173,   1.566e-4
1.174,   1.578e-4
1.175,   1.583e-4
1.176,   1.587e-4
1.177,   1.597e-4
1.178,   1.594e-4
1.179,   1.605e-4
1.180,   1.620e-4
1.181,   1.613e-4
1.182,   1.628e-4
1.183,   1.634e-4
1.184,   1.633e-4
1.185,   1.647e-4
1.186,   1.645e-4
1.187,   1.652e-4
1.188,   1.660e-4
1.189,   1.660e-4
1.190,   1.671e-4
1.191,   1.676e-4
1.192,   1.679e-4
1.193,   1.690e-4
1.194,   1.687e-4
1.195,   1.697e-4
1.196,   1.709e-4
1.197,   1.702e-4
1.198,   1.714e-4
1.199,   1.716e-4
1.200,   1.719e-4
1.201,   1.730e-4
1.202,   1.729e-4
1.203,   1.734e-4
1.204,   1.744e-4
1.205,   1.741e-4
1.206,   1.748e-4
1.207,   1.751e-4
1.208,   1.760e-4
1.209,   1.765e-4
1.210,   1.759e-4
1.211,   1.767e-4
1.212,   1.778e-4
1.213,   1.767e-4
1.214,   1.780e-4
1.215,   1.785e-4
1.216,   1.781e-4
1.217,   1.790e-4
1.218,   1.787e-4
1.219,   1.788e-4
1.220,   1.797e-4
1.221,   1.795e-4
1.222,   1.801e-4
1.223,   1.801e-4
1.224,   1.797e-4
1.225,   1.808e-4
1.226,   1.801e-4
1.227,   1.807e-4
1.228,   1.814e-4
1.229,   1.804e-4
1.230,   1.811e-4
1.231,   1.813e-4
1.232,   1.807e-4
1.233,   1.819e-4
1.234,   1.816e-4
1.235,   1.812e-4
1.236,   1.817e-4
1.237,   1.812e-4
1.238,   1.814e-4
1.239,   1.817e-4
1.240,   1.816e-4
1.241,   1.820e-4
1.242,   1.814e-4
1.243,   1.814e-4
1.244,   1.819e-4
1.245,   1.807e-4
1.246,   1.817e-4
1.247,   1.817e-4
1.248,   1.812e-4
1.249,   1.817e-4
1.250,   1.811e-4
1.251,   1.811e-4
1.252,   1.815e-4
1.253,   1.805e-4
1.254,   1.812e-4
1.255,   1.809e-4
1.256,   1.804e-4
1.257,   1.811e-4
1.258,   1.801e-4
1.259,   1.809e-4
1.260,   1.811e-4
1.261,   1.798e-4
1.262,   1.804e-4
1.263,   1.803e-4
1.264,   1.794e-4
1.265,   1.803e-4
1.266,   1.799e-4
1.267,   1.796e-4
1.268,   1.802e-4
1.269,   1.792e-4
1.270,   1.797e-4
1.271,   1.795e-4
1.272,   1.797e-4
1.273,   1.800e-4
1.274,   1.791e-4
1.275,   1.790e-4
1.276,   1.797e-4
1.277,   1.786e-4
1.278,   1.793e-4
1.279,   1.795e-4
1.280,   1.787e-4
1.281,   1.796e-4
1.282,   1.789e-4
1.283,   1.788e-4
1.284,   1.795e-4
1.285,   1.792e-4
1.286,   1.793e-4
1.287,   1.793e-4
1.288,   1.788e-4
1.289,   1.798e-4
1.290,   1.788e-4
1.291,   1.795e-4
1.292,   1.800e-4
1.293,   1.788e-4
1.294,   1.799e-4
1.295,   1.801e-4
1.296,   1.794e-4
1.297,   1.805e-4
1.298,   1.805e-4
1.299,   1.803e-4
1.300,   1.810e-4
1.301,   1.805e-4
1.302,   1.811e-4
1.303,   1.809e-4
1.304,   1.814e-4
1.305,   1.822e-4
1.306,   1.814e-4
1.307,   1.822e-4
1.308,   1.828e-4
1.309,   1.824e-4
1.310,   1.835e-4
1.311,   1.840e-4
1.312,   1.835e-4
1.313,   1.845e-4
1.314,   1.841e-4
1.315,   1.847e-4
1.316,   1.857e-4
1.317,   1.855e-4
1.318,   1.864e-4
1.319,   1.864e-4
1.320,   1.870e-4
1.321,   1.880e-4
1.322,   1.878e-4
1.323,   1.898e-4
1.324,   1.906e-4
1.325,   1.892e-4
1.326,   1.902e-4
1.327,   1.912e-4
1.328,   1.914e-4
1.329,   1.928e-4
1.330,   1.930e-4
1.331,   1.933e-4
1.332,   1.947e-4
1.333,   1.947e-4
1.334,   1.959e-4
1.335,   1.965e-4
1.336,   1.978e-4
1.337,   1.988e-4
1.338,   1.988e-4
1.339,   1.997e-4
1.340,   2.015e-4
1.341,   2.016e-4
1.342,   2.034e-4
1.343,   2.042e-4
1.344,   2.047e-4
1.345,   2.066e-4
1.346,   2.072e-4
1.347,   2.081e-4
1.348,   2.100e-4
1.349,   2.111e-4
1.350,   2.123e-4
1.351,   2.135e-4
1.352,   2.147e-4
1.353,   2.170e-4
1.354,   2.175e-4
1.355,   2.195e-4
1.356,   2.219e-4
1.357,   2.225e-4
1.358,   2.247e-4
1.359,   2.266e-4
1.360,   2.281e-4
1.361,   2.310e-4
1.362,   2.330e-4
1.363,   2.349e-4
1.364,   2.374e-4
1.365,   2.395e-4
1.366,   2.423e-4
1.367,   2.451e-4
1.368,   2.479e-4
1.369,   2.512e-4
1.370,   2.533e-4
1.371,   2.572e-4
1.372,   2.615e-4
1.373,   2.638e-4
1.374,   2.690e-4
1.375,   2.734e-4
1.376,   2.773e-4
1.377,   2.825e-4
1.378,   2.867e-4
1.379,   2.921e-4
1.380,   2.985e-4
1.381,   3.041e-4
1.382,   3.107e-4
1.383,   3.182e-4
1.384,   3.246e-4
1.385,   3.335e-4
1.386,   3.410e-4
1.387,   3.510e-4
1.388,   3.611e-4
1.389,   3.696e-4
1.390,   3.821e-4
1.391,   3.939e-4
1.392,   4.061e-4
1.393,   4.208e-4
1.394,   4.347e-4
1.395,   4.504e-4
1.396,   4.678e-4
1.397,   4.849e-4
1.398,   5.049e-4
1.399,   5.255e-4
1.400,   5.476e-4
1.401,   5.725e-4
1.402,   5.969e-4
1.403,   6.244e-4
1.404,   6.545e-4
1.405,   6.844e-4
1.406,   7.189e-4
1.407,   7.544e-4
1.408,   7.919e-4
1.409,   8.338e-4
1.410,   8.766e-4
1.411,   9.221e-4
1.412,   9.731e-4
1.413,   1.026e-3
1.414,   1.082e-3
1.415,   1.142e-3
1.416,   1.205e-3
1.417,   1.274e-3
1.418,   1.346e-3
1.419,   1.423e-3
1.420,   1.506e-3
1.421,   1.590e-3
1.422,   1.685e-3
1.423,   1.781e-3
1.424,   1.883e-3
1.425,   1.994e-3
1.426,   2.109e-3
1.427,   2.232e-3
1.428,   2.363e-3
1.429,   2.498e-3
1.430,   2.643e-3
1.431,   2.795e-3
1.432,   2.956e-3
1.433,   3.129e-3
1.434,   3.305e-3
1.435,   3.495e-3
1.436,   3.694e-3
1.437,   3.902e-3
1.438,   4.122e-3
1.439,   4.357e-3
1.440,   4.602e-3
1.441,   4.853e-3
1.442,   5.120e-3
1.443,   5.407e-3
1.444,   5.700e-3
1.445,   6.004e-3
1.446,   6.326e-3
1.447,   6.656e-3
1.448,   7.000e-3
1.449,   7.378e-3
1.450,   7.769e-3
1.451,   8.232e-3
1.452,   8.663e-3
1.453,   9.095e-3
1.454,   9.602e-3
1.455,   1.001e-2
1.456,   1.006e-2
1.457,   1.006e-2