File: Experimental Records, Raw Data, and Supplementary Notes and Figures/batch4/final500/B4_BEST_500_#5_Full-203mV.txt
Mar. 28, 2023   12:18:00
Linear Sweep Voltammetry
File: d:\current work\al_oer\electrochemical test data\batch 4\500\B4_BEST_500_#5_Full-203mV.txt
Data Source:  Experiment
Instrument Model:  CHI660E
Header:
Note:

Init E (V) = 1.099

Final E (V) = 1.516

Scan Rate (V/s) = 0.010
Sample Interval (V) = 0.001
Quiet Time (sec) = 2
Sensitivity (A/V) = 0.001
Comp R (ohm) = 4.8

Results:

Channel 1:

Potential/V, Current/A
1.099,   9.317e-4
1.100,   8.782e-4
1.101,   8.285e-4
1.102,   7.830e-4
1.103,   7.427e-4
1.104,   7.054e-4
1.105,   6.726e-4
1.106,   6.432e-4
1.107,   6.160e-4
1.108,   5.923e-4
1.109,   5.698e-4
1.110,   5.493e-4
1.111,   5.298e-4
1.112,   5.113e-4
1.113,   4.953e-4
1.114,   4.799e-4
1.115,   4.661e-4
1.116,   4.526e-4
1.117,   4.401e-4
1.118,   4.277e-4
1.119,   4.173e-4
1.120,   4.084e-4
1.121,   3.991e-4
1.122,   3.893e-4
1.123,   3.807e-4
1.124,   3.724e-4
1.125,   3.649e-4
1.126,   3.577e-4
1.127,   3.511e-4
1.128,   3.439e-4
1.129,   3.376e-4
1.130,   3.319e-4
1.131,   3.264e-4
1.132,   3.210e-4
1.133,   3.159e-4
1.134,   3.108e-4
1.135,   3.055e-4
1.136,   3.007e-4
1.137,   2.964e-4
1.138,   2.924e-4
1.139,   2.884e-4
1.140,   2.844e-4
1.141,   2.804e-4
1.142,   2.772e-4
1.143,   2.737e-4
1.144,   2.705e-4
1.145,   2.671e-4
1.146,   2.642e-4
1.147,   2.613e-4
1.148,   2.584e-4
1.149,   2.560e-4
1.150,   2.533e-4
1.151,   2.510e-4
1.152,   2.490e-4
1.153,   2.463e-4
1.154,   2.444e-4
1.155,   2.418e-4
1.156,   2.398e-4
1.157,   2.376e-4
1.158,   2.357e-4
1.159,   2.339e-4
1.160,   2.315e-4
1.161,   2.299e-4
1.162,   2.281e-4
1.163,   2.264e-4
1.164,   2.253e-4
1.165,   2.246e-4
1.166,   2.227e-4
1.167,   2.217e-4
1.168,   2.202e-4
1.169,   2.190e-4
1.170,   2.178e-4
1.171,   2.169e-4
1.172,   2.158e-4
1.173,   2.146e-4
1.174,   2.139e-4
1.175,   2.127e-4
1.176,   2.112e-4
1.177,   2.103e-4
1.178,   2.097e-4
1.179,   2.088e-4
1.180,   2.079e-4
1.181,   2.072e-4
1.182,   2.062e-4
1.183,   2.052e-4
1.184,   2.048e-4
1.185,   2.046e-4
1.186,   2.040e-4
1.187,   2.029e-4
1.188,   2.020e-4
1.189,   2.011e-4
1.190,   2.005e-4
1.191,   1.999e-4
1.192,   1.995e-4
1.193,   1.991e-4
1.194,   1.988e-4
1.195,   1.979e-4
1.196,   1.974e-4
1.197,   1.969e-4
1.198,   1.961e-4
1.199,   1.959e-4
1.200,   1.956e-4
1.201,   1.954e-4
1.202,   1.950e-4
1.203,   1.943e-4
1.204,   1.940e-4
1.205,   1.938e-4
1.206,   1.934e-4
1.207,   1.932e-4
1.208,   1.930e-4
1.209,   1.930e-4
1.210,   1.927e-4
1.211,   1.923e-4
1.212,   1.922e-4
1.213,   1.921e-4
1.214,   1.917e-4
1.215,   1.915e-4
1.216,   1.912e-4
1.217,   1.912e-4
1.218,   1.911e-4
1.219,   1.911e-4
1.220,   1.910e-4
1.221,   1.907e-4
1.222,   1.910e-4
1.223,   1.908e-4
1.224,   1.906e-4
1.225,   1.907e-4
1.226,   1.911e-4
1.227,   1.906e-4
1.228,   1.908e-4
1.229,   1.909e-4
1.230,   1.909e-4
1.231,   1.910e-4
1.232,   1.912e-4
1.233,   1.912e-4
1.234,   1.911e-4
1.235,   1.912e-4
1.236,   1.910e-4
1.237,   1.910e-4
1.238,   1.910e-4
1.239,   1.910e-4
1.240,   1.908e-4
1.241,   1.912e-4
1.242,   1.909e-4
1.243,   1.909e-4
1.244,   1.911e-4
1.245,   1.913e-4
1.246,   1.910e-4
1.247,   1.911e-4
1.248,   1.912e-4
1.249,   1.913e-4
1.250,   1.913e-4
1.251,   1.912e-4
1.252,   1.916e-4
1.253,   1.918e-4
1.254,   1.918e-4
1.255,   1.919e-4
1.256,   1.920e-4
1.257,   1.927e-4
1.258,   1.926e-4
1.259,   1.926e-4
1.260,   1.927e-4
1.261,   1.925e-4
1.262,   1.925e-4
1.263,   1.927e-4
1.264,   1.928e-4
1.265,   1.931e-4
1.266,   1.936e-4
1.267,   1.935e-4
1.268,   1.938e-4
1.269,   1.942e-4
1.270,   1.942e-4
1.271,   1.945e-4
1.272,   1.945e-4
1.273,   1.945e-4
1.274,   1.950e-4
1.275,   1.954e-4
1.276,   1.960e-4
1.277,   1.963e-4
1.278,   1.964e-4
1.279,   1.969e-4
1.280,   1.974e-4
1.281,   1.976e-4
1.282,   1.978e-4
1.283,   1.977e-4
1.284,   1.979e-4
1.285,   1.980e-4
1.286,   1.981e-4
1.287,   1.986e-4
1.288,   1.988e-4
1.289,   1.989e-4
1.290,   1.993e-4
1.291,   1.994e-4
1.292,   1.998e-4
1.293,   2.006e-4
1.294,   2.009e-4
1.295,   2.011e-4
1.296,   2.014e-4
1.297,   2.017e-4
1.298,   2.022e-4
1.299,   2.028e-4
1.300,   2.032e-4
1.301,   2.037e-4
1.302,   2.040e-4
1.303,   2.044e-4
1.304,   2.049e-4
1.305,   2.056e-4
1.306,   2.063e-4
1.307,   2.067e-4
1.308,   2.071e-4
1.309,   2.074e-4
1.310,   2.078e-4
1.311,   2.083e-4
1.312,   2.089e-4
1.313,   2.095e-4
1.314,   2.102e-4
1.315,   2.109e-4
1.316,   2.117e-4
1.317,   2.125e-4
1.318,   2.132e-4
1.319,   2.138e-4
1.320,   2.143e-4
1.321,   2.150e-4
1.322,   2.159e-4
1.323,   2.165e-4
1.324,   2.175e-4
1.325,   2.185e-4
1.326,   2.190e-4
1.327,   2.200e-4
1.328,   2.209e-4
1.329,   2.219e-4
1.330,   2.227e-4
1.331,   2.234e-4
1.332,   2.245e-4
1.333,   2.253e-4
1.334,   2.263e-4
1.335,   2.272e-4
1.336,   2.280e-4
1.337,   2.295e-4
1.338,   2.308e-4
1.339,   2.319e-4
1.340,   2.332e-4
1.341,   2.343e-4
1.342,   2.356e-4
1.343,   2.370e-4
1.344,   2.381e-4
1.345,   2.397e-4
1.346,   2.412e-4
1.347,   2.426e-4
1.348,   2.443e-4
1.349,   2.461e-4
1.350,   2.479e-4
1.351,   2.496e-4
1.352,   2.514e-4
1.353,   2.533e-4
1.354,   2.553e-4
1.355,   2.570e-4
1.356,   2.591e-4
1.357,   2.612e-4
1.358,   2.633e-4
1.359,   2.658e-4
1.360,   2.682e-4
1.361,   2.705e-4
1.362,   2.733e-4
1.363,   2.760e-4
1.364,   2.787e-4
1.365,   2.816e-4
1.366,   2.847e-4
1.367,   2.882e-4
1.368,   2.912e-4
1.369,   2.946e-4
1.370,   2.983e-4
1.371,   3.019e-4
1.372,   3.057e-4
1.373,   3.099e-4
1.374,   3.142e-4
1.375,   3.188e-4
1.376,   3.238e-4
1.377,   3.288e-4
1.378,   3.341e-4
1.379,   3.395e-4
1.380,   3.455e-4
1.381,   3.514e-4
1.382,   3.578e-4
1.383,   3.650e-4
1.384,   3.718e-4
1.385,   3.793e-4
1.386,   3.874e-4
1.387,   3.957e-4
1.388,   4.048e-4
1.389,   4.145e-4
1.390,   4.241e-4
1.391,   4.349e-4
1.392,   4.459e-4
1.393,   4.579e-4
1.394,   4.703e-4
1.395,   4.837e-4
1.396,   4.977e-4
1.397,   5.125e-4
1.398,   5.280e-4
1.399,   5.449e-4
1.400,   5.627e-4
1.401,   5.815e-4
1.402,   6.009e-4
1.403,   6.217e-4
1.404,   6.440e-4
1.405,   6.672e-4
1.406,   6.919e-4
1.407,   7.176e-4
1.408,   7.446e-4
1.409,   7.727e-4
1.410,   8.013e-4
1.411,   8.313e-4
1.412,   8.636e-4
1.413,   8.974e-4
1.414,   9.326e-4
1.415,   9.691e-4
1.416,   1.007e-3
1.417,   1.047e-3
1.418,   1.088e-3
1.419,   1.129e-3
1.420,   1.174e-3
1.421,   1.220e-3
1.422,   1.267e-3
1.423,   1.316e-3
1.424,   1.368e-3
1.425,   1.421e-3
1.426,   1.475e-3
1.427,   1.530e-3
1.428,   1.588e-3
1.429,   1.648e-3
1.430,   1.710e-3
1.431,   1.773e-3
1.432,   1.839e-3
1.433,   1.907e-3
1.434,   1.977e-3
1.435,   2.048e-3
1.436,   2.122e-3
1.437,   2.198e-3
1.438,   2.271e-3
1.439,   2.347e-3
1.440,   2.426e-3
1.441,   2.510e-3
1.442,   2.593e-3
1.443,   2.677e-3
1.444,   2.767e-3
1.445,   2.857e-3
1.446,   2.947e-3
1.447,   3.041e-3
1.448,   3.134e-3
1.449,   3.232e-3
1.450,   3.330e-3
1.451,   3.429e-3
1.452,   3.529e-3
1.453,   3.630e-3
1.454,   3.732e-3
1.455,   3.838e-3
1.456,   3.947e-3
1.457,   4.053e-3
1.458,   4.166e-3
1.459,   4.277e-3
1.460,   4.387e-3
1.461,   4.500e-3
1.462,   4.613e-3
1.463,   4.739e-3
1.464,   4.860e-3
1.465,   4.980e-3
1.466,   5.098e-3
1.467,   5.221e-3
1.468,   5.353e-3
1.469,   5.482e-3
1.470,   5.602e-3
1.471,   5.730e-3
1.472,   5.859e-3
1.473,   5.999e-3
1.474,   6.168e-3
1.475,   6.301e-3
1.476,   6.431e-3
1.477,   6.550e-3
1.478,   6.676e-3
1.479,   6.804e-3
1.480,   6.942e-3
1.481,   7.101e-3
1.482,   7.236e-3
1.483,   7.371e-3
1.484,   7.527e-3
1.485,   7.650e-3
1.486,   7.771e-3
1.487,   7.887e-3
1.488,   7.996e-3
1.489,   8.112e-3
1.490,   8.233e-3
1.491,   8.368e-3
1.492,   8.500e-3
1.493,   8.610e-3
1.494,   8.714e-3
1.495,   8.821e-3
1.496,   8.921e-3
1.497,   9.013e-3
1.498,   9.109e-3
1.499,   9.319e-3
1.500,   9.486e-3
1.501,   9.577e-3
1.502,   9.697e-3
1.503,   9.826e-3
1.504,   9.917e-3
1.505,   9.990e-3
1.506,   1.006e-2
1.507,   1.006e-2
1.508,   1.006e-2
1.509,   1.006e-2
1.510,   1.006e-2
1.511,   1.006e-2
1.512,   1.006e-2
1.513,   1.006e-2
1.514,   1.006e-2
1.515,   1.006e-2
1.516,   1.006e-2