File: Experimental Records, Raw Data, and Supplementary Notes and Figures/batch4/final500/B4_BEST_500_#6_High_Quality(#22)-193mV.txt
Mar. 29, 2023   11:37:57
Linear Sweep Voltammetry
File: d:\current work\al_oer\electrochemical test data\batch 4\500\B4_BEST_500_#6_High_Quality(#22)-193mV.txt
Data Source:  Experiment
Instrument Model:  CHI660E
Header:
Note:

Init E (V) = 1.097

Final E (V) = 1.478

Scan Rate (V/s) = 0.010
Sample Interval (V) = 0.001
Quiet Time (sec) = 2
Sensitivity (A/V) = 0.001
Comp R (ohm) = 5.3

Results:

Channel 1:

Potential/V, Current/A
1.097,   3.382e-4
1.098,   3.308e-4
1.099,   3.096e-4
1.100,   2.891e-4
1.101,   2.717e-4
1.102,   2.568e-4
1.103,   2.442e-4
1.104,   2.337e-4
1.105,   2.244e-4
1.106,   2.163e-4
1.107,   2.095e-4
1.108,   2.034e-4
1.109,   1.983e-4
1.110,   1.935e-4
1.111,   1.893e-4
1.112,   1.855e-4
1.113,   1.818e-4
1.114,   1.789e-4
1.115,   1.761e-4
1.116,   1.733e-4
1.117,   1.714e-4
1.118,   1.697e-4
1.119,   1.673e-4
1.120,   1.658e-4
1.121,   1.640e-4
1.122,   1.626e-4
1.123,   1.613e-4
1.124,   1.600e-4
1.125,   1.589e-4
1.126,   1.578e-4
1.127,   1.568e-4
1.128,   1.561e-4
1.129,   1.549e-4
1.130,   1.545e-4
1.131,   1.541e-4
1.132,   1.532e-4
1.133,   1.527e-4
1.134,   1.520e-4
1.135,   1.515e-4
1.136,   1.514e-4
1.137,   1.509e-4
1.138,   1.507e-4
1.139,   1.506e-4
1.140,   1.500e-4
1.141,   1.502e-4
1.142,   1.499e-4
1.143,   1.499e-4
1.144,   1.500e-4
1.145,   1.497e-4
1.146,   1.498e-4
1.147,   1.499e-4
1.148,   1.498e-4
1.149,   1.500e-4
1.150,   1.501e-4
1.151,   1.500e-4
1.152,   1.505e-4
1.153,   1.502e-4
1.154,   1.504e-4
1.155,   1.508e-4
1.156,   1.510e-4
1.157,   1.513e-4
1.158,   1.514e-4
1.159,   1.517e-4
1.160,   1.521e-4
1.161,   1.521e-4
1.162,   1.527e-4
1.163,   1.533e-4
1.164,   1.530e-4
1.165,   1.538e-4
1.166,   1.541e-4
1.167,   1.543e-4
1.168,   1.551e-4
1.169,   1.554e-4
1.170,   1.558e-4
1.171,   1.562e-4
1.172,   1.563e-4
1.173,   1.570e-4
1.174,   1.573e-4
1.175,   1.578e-4
1.176,   1.585e-4
1.177,   1.585e-4
1.178,   1.592e-4
1.179,   1.598e-4
1.180,   1.600e-4
1.181,   1.607e-4
1.182,   1.612e-4
1.183,   1.614e-4
1.184,   1.622e-4
1.185,   1.622e-4
1.186,   1.629e-4
1.187,   1.636e-4
1.188,   1.639e-4
1.189,   1.647e-4
1.190,   1.649e-4
1.191,   1.653e-4
1.192,   1.661e-4
1.193,   1.663e-4
1.194,   1.671e-4
1.195,   1.677e-4
1.196,   1.678e-4
1.197,   1.686e-4
1.198,   1.690e-4
1.199,   1.695e-4
1.200,   1.700e-4
1.201,   1.702e-4
1.202,   1.708e-4
1.203,   1.714e-4
1.204,   1.715e-4
1.205,   1.725e-4
1.206,   1.729e-4
1.207,   1.736e-4
1.208,   1.741e-4
1.209,   1.741e-4
1.210,   1.748e-4
1.211,   1.754e-4
1.212,   1.754e-4
1.213,   1.762e-4
1.214,   1.767e-4
1.215,   1.769e-4
1.216,   1.776e-4
1.217,   1.776e-4
1.218,   1.783e-4
1.219,   1.788e-4
1.220,   1.790e-4
1.221,   1.796e-4
1.222,   1.801e-4
1.223,   1.804e-4
1.224,   1.811e-4
1.225,   1.809e-4
1.226,   1.818e-4
1.227,   1.822e-4
1.228,   1.822e-4
1.229,   1.829e-4
1.230,   1.830e-4
1.231,   1.832e-4
1.232,   1.840e-4
1.233,   1.844e-4
1.234,   1.846e-4
1.235,   1.850e-4
1.236,   1.848e-4
1.237,   1.855e-4
1.238,   1.857e-4
1.239,   1.861e-4
1.240,   1.866e-4
1.241,   1.862e-4
1.242,   1.868e-4
1.243,   1.874e-4
1.244,   1.871e-4
1.245,   1.877e-4
1.246,   1.880e-4
1.247,   1.881e-4
1.248,   1.886e-4
1.249,   1.884e-4
1.250,   1.885e-4
1.251,   1.881e-4
1.252,   1.881e-4
1.253,   1.888e-4
1.254,   1.890e-4
1.255,   1.893e-4
1.256,   1.899e-4
1.257,   1.897e-4
1.258,   1.901e-4
1.259,   1.906e-4
1.260,   1.900e-4
1.261,   1.906e-4
1.262,   1.908e-4
1.263,   1.908e-4
1.264,   1.910e-4
1.265,   1.911e-4
1.266,   1.914e-4
1.267,   1.915e-4
1.268,   1.915e-4
1.269,   1.920e-4
1.270,   1.920e-4
1.271,   1.925e-4
1.272,   1.928e-4
1.273,   1.924e-4
1.274,   1.928e-4
1.275,   1.932e-4
1.276,   1.930e-4
1.277,   1.936e-4
1.278,   1.936e-4
1.279,   1.937e-4
1.280,   1.944e-4
1.281,   1.941e-4
1.282,   1.947e-4
1.283,   1.950e-4
1.284,   1.954e-4
1.285,   1.956e-4
1.286,   1.956e-4
1.287,   1.958e-4
1.288,   1.966e-4
1.289,   1.964e-4
1.290,   1.971e-4
1.291,   1.977e-4
1.292,   1.975e-4
1.293,   1.982e-4
1.294,   1.984e-4
1.295,   1.988e-4
1.296,   1.995e-4
1.297,   1.998e-4
1.298,   2.002e-4
1.299,   2.007e-4
1.300,   2.007e-4
1.301,   2.016e-4
1.302,   2.019e-4
1.303,   2.023e-4
1.304,   2.033e-4
1.305,   2.031e-4
1.306,   2.041e-4
1.307,   2.048e-4
1.308,   2.049e-4
1.309,   2.058e-4
1.310,   2.066e-4
1.311,   2.068e-4
1.312,   2.077e-4
1.313,   2.082e-4
1.314,   2.088e-4
1.315,   2.096e-4
1.316,   2.102e-4
1.317,   2.111e-4
1.318,   2.116e-4
1.319,   2.123e-4
1.320,   2.134e-4
1.321,   2.135e-4
1.322,   2.153e-4
1.323,   2.163e-4
1.324,   2.164e-4
1.325,   2.173e-4
1.326,   2.180e-4
1.327,   2.188e-4
1.328,   2.201e-4
1.329,   2.208e-4
1.330,   2.216e-4
1.331,   2.230e-4
1.332,   2.236e-4
1.333,   2.251e-4
1.334,   2.258e-4
1.335,   2.272e-4
1.336,   2.284e-4
1.337,   2.291e-4
1.338,   2.305e-4
1.339,   2.319e-4
1.340,   2.326e-4
1.341,   2.346e-4
1.342,   2.359e-4
1.343,   2.370e-4
1.344,   2.388e-4
1.345,   2.397e-4
1.346,   2.415e-4
1.347,   2.431e-4
1.348,   2.447e-4
1.349,   2.465e-4
1.350,   2.482e-4
1.351,   2.500e-4
1.352,   2.518e-4
1.353,   2.535e-4
1.354,   2.557e-4
1.355,   2.580e-4
1.356,   2.596e-4
1.357,   2.621e-4
1.358,   2.644e-4
1.359,   2.667e-4
1.360,   2.697e-4
1.361,   2.722e-4
1.362,   2.749e-4
1.363,   2.777e-4
1.364,   2.806e-4
1.365,   2.840e-4
1.366,   2.871e-4
1.367,   2.907e-4
1.368,   2.946e-4
1.369,   2.980e-4
1.370,   3.021e-4
1.371,   3.064e-4
1.372,   3.104e-4
1.373,   3.159e-4
1.374,   3.210e-4
1.375,   3.260e-4
1.376,   3.319e-4
1.377,   3.376e-4
1.378,   3.440e-4
1.379,   3.509e-4
1.380,   3.579e-4
1.381,   3.657e-4
1.382,   3.736e-4
1.383,   3.822e-4
1.384,   3.920e-4
1.385,   4.012e-4
1.386,   4.126e-4
1.387,   4.242e-4
1.388,   4.356e-4
1.389,   4.486e-4
1.390,   4.616e-4
1.391,   4.767e-4
1.392,   4.931e-4
1.393,   5.089e-4
1.394,   5.274e-4
1.395,   5.458e-4
1.396,   5.667e-4
1.397,   5.880e-4
1.398,   6.115e-4
1.399,   6.362e-4
1.400,   6.621e-4
1.401,   6.903e-4
1.402,   7.199e-4
1.403,   7.515e-4
1.404,   7.851e-4
1.405,   8.218e-4
1.406,   8.589e-4
1.407,   8.985e-4
1.408,   9.413e-4
1.409,   9.865e-4
1.410,   1.034e-3
1.411,   1.085e-3
1.412,   1.137e-3
1.413,   1.191e-3
1.414,   1.245e-3
1.415,   1.307e-3
1.416,   1.374e-3
1.417,   1.441e-3
1.418,   1.513e-3
1.419,   1.587e-3
1.420,   1.663e-3
1.421,   1.742e-3
1.422,   1.824e-3
1.423,   1.911e-3
1.424,   2.007e-3
1.425,   2.093e-3
1.426,   2.187e-3
1.427,   2.289e-3
1.428,   2.395e-3
1.429,   2.504e-3
1.430,   2.612e-3
1.431,   2.729e-3
1.432,   2.847e-3
1.433,   2.958e-3
1.434,   3.086e-3
1.435,   3.212e-3
1.436,   3.319e-3
1.437,   3.428e-3
1.438,   3.557e-3
1.439,   3.692e-3
1.440,   3.827e-3
1.441,   3.979e-3
1.442,   4.119e-3
1.443,   4.260e-3
1.444,   4.398e-3
1.445,   4.540e-3
1.446,   4.700e-3
1.447,   4.868e-3
1.448,   4.984e-3
1.449,   5.109e-3
1.450,   5.254e-3
1.451,   5.414e-3
1.452,   5.585e-3
1.453,   5.739e-3
1.454,   5.905e-3
1.455,   6.067e-3
1.456,   6.223e-3
1.457,   6.423e-3
1.458,   6.678e-3
1.459,   6.843e-3
1.460,   6.980e-3
1.461,   7.151e-3
1.462,   7.309e-3
1.463,   7.481e-3
1.464,   7.633e-3
1.465,   7.826e-3
1.466,   8.013e-3
1.467,   8.153e-3
1.468,   8.360e-3
1.469,   8.572e-3
1.470,   8.682e-3
1.471,   8.769e-3
1.472,   8.920e-3
1.473,   9.185e-3
1.474,   9.320e-3
1.475,   9.447e-3
1.476,   9.705e-3
1.477,   1.002e-2
1.478,   1.006e-2