File: Experimental Records, Raw Data, and Supplementary Notes and Figures/batch4/final500/B4_VARIANCE_500_#2_High_Quality(#26)-230mV.txt
Mar. 29, 2023   11:44:08
Linear Sweep Voltammetry
File: d:\current work\al_oer\electrochemical test data\batch 4\500\B4_VARIANCE_500_#2_High_Quality(#26)-230mV.txt
Data Source:  Experiment
Instrument Model:  CHI660E
Header:
Note:

Init E (V) = 1.120

Final E (V) = 1.508

Scan Rate (V/s) = 0.010
Sample Interval (V) = 0.001
Quiet Time (sec) = 2
Sensitivity (A/V) = 0.001
Comp R (ohm) = 6.0

Results:

Channel 1:

Potential/V, Current/A
1.120,   5.966e-4
1.121,   5.530e-4
1.122,   5.070e-4
1.123,   4.652e-4
1.124,   4.277e-4
1.125,   3.965e-4
1.126,   3.692e-4
1.127,   3.457e-4
1.128,   3.252e-4
1.129,   3.060e-4
1.130,   2.889e-4
1.131,   2.738e-4
1.132,   2.612e-4
1.133,   2.500e-4
1.134,   2.404e-4
1.135,   2.314e-4
1.136,   2.230e-4
1.137,   2.163e-4
1.138,   2.097e-4
1.139,   2.028e-4
1.140,   1.971e-4
1.141,   1.927e-4
1.142,   1.877e-4
1.143,   1.837e-4
1.144,   1.798e-4
1.145,   1.760e-4
1.146,   1.727e-4
1.147,   1.694e-4
1.148,   1.666e-4
1.149,   1.640e-4
1.150,   1.616e-4
1.151,   1.597e-4
1.152,   1.576e-4
1.153,   1.557e-4
1.154,   1.540e-4
1.155,   1.523e-4
1.156,   1.508e-4
1.157,   1.488e-4
1.158,   1.476e-4
1.159,   1.465e-4
1.160,   1.450e-4
1.161,   1.435e-4
1.162,   1.423e-4
1.163,   1.409e-4
1.164,   1.402e-4
1.165,   1.394e-4
1.166,   1.389e-4
1.167,   1.386e-4
1.168,   1.379e-4
1.169,   1.376e-4
1.170,   1.369e-4
1.171,   1.360e-4
1.172,   1.355e-4
1.173,   1.349e-4
1.174,   1.345e-4
1.175,   1.343e-4
1.176,   1.337e-4
1.177,   1.333e-4
1.178,   1.330e-4
1.179,   1.326e-4
1.180,   1.326e-4
1.181,   1.323e-4
1.182,   1.321e-4
1.183,   1.321e-4
1.184,   1.315e-4
1.185,   1.317e-4
1.186,   1.316e-4
1.187,   1.310e-4
1.188,   1.308e-4
1.189,   1.307e-4
1.190,   1.307e-4
1.191,   1.310e-4
1.192,   1.310e-4
1.193,   1.308e-4
1.194,   1.308e-4
1.195,   1.307e-4
1.196,   1.307e-4
1.197,   1.308e-4
1.198,   1.307e-4
1.199,   1.307e-4
1.200,   1.306e-4
1.201,   1.307e-4
1.202,   1.309e-4
1.203,   1.307e-4
1.204,   1.310e-4
1.205,   1.313e-4
1.206,   1.312e-4
1.207,   1.313e-4
1.208,   1.312e-4
1.209,   1.316e-4
1.210,   1.317e-4
1.211,   1.318e-4
1.212,   1.321e-4
1.213,   1.322e-4
1.214,   1.321e-4
1.215,   1.325e-4
1.216,   1.323e-4
1.217,   1.326e-4
1.218,   1.330e-4
1.219,   1.329e-4
1.220,   1.333e-4
1.221,   1.334e-4
1.222,   1.335e-4
1.223,   1.338e-4
1.224,   1.337e-4
1.225,   1.341e-4
1.226,   1.344e-4
1.227,   1.343e-4
1.228,   1.348e-4
1.229,   1.348e-4
1.230,   1.350e-4
1.231,   1.354e-4
1.232,   1.352e-4
1.233,   1.355e-4
1.234,   1.356e-4
1.235,   1.355e-4
1.236,   1.359e-4
1.237,   1.360e-4
1.238,   1.359e-4
1.239,   1.362e-4
1.240,   1.361e-4
1.241,   1.365e-4
1.242,   1.367e-4
1.243,   1.367e-4
1.244,   1.371e-4
1.245,   1.370e-4
1.246,   1.371e-4
1.247,   1.375e-4
1.248,   1.374e-4
1.249,   1.377e-4
1.250,   1.380e-4
1.251,   1.378e-4
1.252,   1.380e-4
1.253,   1.381e-4
1.254,   1.381e-4
1.255,   1.383e-4
1.256,   1.384e-4
1.257,   1.384e-4
1.258,   1.385e-4
1.259,   1.383e-4
1.260,   1.387e-4
1.261,   1.386e-4
1.262,   1.387e-4
1.263,   1.389e-4
1.264,   1.386e-4
1.265,   1.390e-4
1.266,   1.390e-4
1.267,   1.387e-4
1.268,   1.388e-4
1.269,   1.390e-4
1.270,   1.389e-4
1.271,   1.391e-4
1.272,   1.388e-4
1.273,   1.390e-4
1.274,   1.391e-4
1.275,   1.388e-4
1.276,   1.390e-4
1.277,   1.388e-4
1.278,   1.388e-4
1.279,   1.390e-4
1.280,   1.385e-4
1.281,   1.388e-4
1.282,   1.390e-4
1.283,   1.386e-4
1.284,   1.387e-4
1.285,   1.384e-4
1.286,   1.382e-4
1.287,   1.385e-4
1.288,   1.384e-4
1.289,   1.383e-4
1.290,   1.383e-4
1.291,   1.380e-4
1.292,   1.383e-4
1.293,   1.383e-4
1.294,   1.383e-4
1.295,   1.384e-4
1.296,   1.379e-4
1.297,   1.380e-4
1.298,   1.379e-4
1.299,   1.377e-4
1.300,   1.379e-4
1.301,   1.378e-4
1.302,   1.375e-4
1.303,   1.378e-4
1.304,   1.375e-4
1.305,   1.375e-4
1.306,   1.375e-4
1.307,   1.375e-4
1.308,   1.375e-4
1.309,   1.373e-4
1.310,   1.372e-4
1.311,   1.374e-4
1.312,   1.373e-4
1.313,   1.375e-4
1.314,   1.377e-4
1.315,   1.373e-4
1.316,   1.376e-4
1.317,   1.375e-4
1.318,   1.374e-4
1.319,   1.378e-4
1.320,   1.378e-4
1.321,   1.378e-4
1.322,   1.380e-4
1.323,   1.378e-4
1.324,   1.380e-4
1.325,   1.380e-4
1.326,   1.381e-4
1.327,   1.383e-4
1.328,   1.382e-4
1.329,   1.385e-4
1.330,   1.387e-4
1.331,   1.386e-4
1.332,   1.390e-4
1.333,   1.391e-4
1.334,   1.392e-4
1.335,   1.396e-4
1.336,   1.394e-4
1.337,   1.397e-4
1.338,   1.400e-4
1.339,   1.399e-4
1.340,   1.403e-4
1.341,   1.405e-4
1.342,   1.407e-4
1.343,   1.411e-4
1.344,   1.410e-4
1.345,   1.418e-4
1.346,   1.423e-4
1.347,   1.420e-4
1.348,   1.425e-4
1.349,   1.428e-4
1.350,   1.431e-4
1.351,   1.437e-4
1.352,   1.439e-4
1.353,   1.444e-4
1.354,   1.449e-4
1.355,   1.449e-4
1.356,   1.456e-4
1.357,   1.460e-4
1.358,   1.466e-4
1.359,   1.473e-4
1.360,   1.473e-4
1.361,   1.480e-4
1.362,   1.487e-4
1.363,   1.490e-4
1.364,   1.499e-4
1.365,   1.506e-4
1.366,   1.509e-4
1.367,   1.518e-4
1.368,   1.523e-4
1.369,   1.530e-4
1.370,   1.539e-4
1.371,   1.545e-4
1.372,   1.554e-4
1.373,   1.561e-4
1.374,   1.569e-4
1.375,   1.578e-4
1.376,   1.584e-4
1.377,   1.600e-4
1.378,   1.615e-4
1.379,   1.624e-4
1.380,   1.631e-4
1.381,   1.642e-4
1.382,   1.664e-4
1.383,   1.665e-4
1.384,   1.694e-4
1.385,   1.692e-4
1.386,   1.719e-4
1.387,   1.733e-4
1.388,   1.743e-4
1.389,   1.761e-4
1.390,   1.783e-4
1.391,   1.805e-4
1.392,   1.822e-4
1.393,   1.846e-4
1.394,   1.876e-4
1.395,   1.904e-4
1.396,   1.922e-4
1.397,   1.945e-4
1.398,   1.998e-4
1.399,   2.003e-4
1.400,   2.067e-4
1.401,   2.072e-4
1.402,   2.140e-4
1.403,   2.187e-4
1.404,   2.221e-4
1.405,   2.271e-4
1.406,   2.327e-4
1.407,   2.372e-4
1.408,   2.436e-4
1.409,   2.502e-4
1.410,   2.574e-4
1.411,   2.642e-4
1.412,   2.712e-4
1.413,   2.777e-4
1.414,   2.870e-4
1.415,   2.989e-4
1.416,   3.093e-4
1.417,   3.164e-4
1.418,   3.277e-4
1.419,   3.441e-4
1.420,   3.521e-4
1.421,   3.676e-4
1.422,   3.835e-4
1.423,   3.961e-4
1.424,   4.147e-4
1.425,   4.286e-4
1.426,   4.496e-4
1.427,   4.674e-4
1.428,   4.844e-4
1.429,   5.126e-4
1.430,   5.296e-4
1.431,   5.502e-4
1.432,   5.796e-4
1.433,   6.046e-4
1.434,   6.262e-4
1.435,   6.525e-4
1.436,   6.817e-4
1.437,   7.120e-4
1.438,   7.434e-4
1.439,   7.780e-4
1.440,   8.119e-4
1.441,   8.484e-4
1.442,   8.874e-4
1.443,   9.251e-4
1.444,   9.653e-4
1.445,   1.009e-3
1.446,   1.054e-3
1.447,   1.098e-3
1.448,   1.147e-3
1.449,   1.203e-3
1.450,   1.256e-3
1.451,   1.305e-3
1.452,   1.368e-3
1.453,   1.428e-3
1.454,   1.495e-3
1.455,   1.558e-3
1.456,   1.620e-3
1.457,   1.698e-3
1.458,   1.768e-3
1.459,   1.840e-3
1.460,   1.916e-3
1.461,   2.004e-3
1.462,   2.080e-3
1.463,   2.165e-3
1.464,   2.252e-3
1.465,   2.342e-3
1.466,   2.441e-3
1.467,   2.533e-3
1.468,   2.630e-3
1.469,   2.735e-3
1.470,   2.844e-3
1.471,   2.956e-3
1.472,   3.075e-3
1.473,   3.190e-3
1.474,   3.307e-3
1.475,   3.413e-3
1.476,   3.529e-3
1.477,   3.640e-3
1.478,   3.770e-3
1.479,   3.899e-3
1.480,   4.032e-3
1.481,   4.195e-3
1.482,   4.382e-3
1.483,   4.546e-3
1.484,   4.700e-3
1.485,   4.855e-3
1.486,   5.023e-3
1.487,   5.183e-3
1.488,   5.340e-3
1.489,   5.527e-3
1.490,   5.719e-3
1.491,   5.892e-3
1.492,   6.093e-3
1.493,   6.333e-3
1.494,   6.550e-3
1.495,   6.719e-3
1.496,   6.898e-3
1.497,   7.090e-3
1.498,   7.448e-3
1.499,   7.770e-3
1.500,   8.055e-3
1.501,   8.469e-3
1.502,   8.950e-3
1.503,   9.139e-3
1.504,   9.353e-3
1.505,   1.001e-2
1.506,   1.006e-2
1.507,   1.006e-2
1.508,   1.006e-2