File: Experimental Records, Raw Data, and Supplementary Notes and Figures/batch4/final500/B4_VARIANCE_500_#7_Full(#15)-334mV.txt
Mar. 29, 2023   12:21:05
Linear Sweep Voltammetry
File: d:\current work\al_oer\electrochemical test data\batch 4\500\B4_VARIANCE_500_#7_Full(#15)-334mV.txt
Data Source:  Experiment
Instrument Model:  CHI660E
Header:
Note:

Init E (V) = 1.076

Final E (V) = 1.565

Scan Rate (V/s) = 0.010
Sample Interval (V) = 0.001
Quiet Time (sec) = 2
Sensitivity (A/V) = 0.001
Comp R (ohm) = 5.0

Results:

Channel 1:

Potential/V, Current/A
1.076,   1.992E-04
1.077,   1.919E-04
1.078,   1.841E-04
1.079,   1.762E-04
1.08,   1.697E-04
1.081,   1.640E-04
1.082,   1.583E-04
1.083,   1.529E-04
1.084,   1.488E-04
1.085,   1.441E-04
1.086,   1.404E-04
1.087,   1.368E-04
1.088,   1.329E-04
1.089,   1.298E-04
1.09,   1.275E-04
1.091,   1.245E-04
1.092,   1.221E-04
1.093,   1.195E-04
1.094,   1.173E-04
1.095,   1.153E-04
1.096,   1.128E-04
1.097,   1.107E-04
1.098,   1.094E-04
1.099,   1.075E-04
1.1,   1.063E-04
1.101,   1.046E-04
1.102,   1.033E-04
1.103,   1.019E-04
1.104,   1.005E-04
1.105,   9.939E-05
1.106,   9.809E-05
1.107,   9.650E-05
1.108,   9.557E-05
1.109,   9.455E-05
1.11,   9.425E-05
1.111,   9.295E-05
1.112,   9.200E-05
1.113,   9.149E-05
1.114,   9.043E-05
1.115,   8.930E-05
1.116,   8.881E-05
1.117,   8.847E-05
1.118,   8.754E-05
1.119,   8.658E-05
1.12,   8.603E-05
1.121,   8.495E-05
1.122,   8.471E-05
1.123,   8.411E-05
1.124,   8.406E-05
1.125,   8.328E-05
1.126,   8.251E-05
1.127,   8.244E-05
1.128,   8.222E-05
1.129,   8.182E-05
1.13,   8.103E-05
1.131,   8.060E-05
1.132,   8.024E-05
1.133,   8.012E-05
1.134,   7.974E-05
1.135,   7.936E-05
1.136,   7.873E-05
1.137,   7.835E-05
1.138,   7.795E-05
1.139,   7.801E-05
1.14,   7.806E-05
1.141,   7.773E-05
1.142,   7.760E-05
1.143,   7.687E-05
1.144,   7.698E-05
1.145,   7.674E-05
1.146,   7.644E-05
1.147,   7.620E-05
1.148,   7.612E-05
1.149,   7.647E-05
1.15,   7.554E-05
1.151,   7.566E-05
1.152,   7.543E-05
1.153,   7.514E-05
1.154,   7.508E-05
1.155,   7.457E-05
1.156,   7.503E-05
1.157,   7.501E-05
1.158,   7.436E-05
1.159,   7.433E-05
1.16,   7.406E-05
1.161,   7.411E-05
1.162,   7.428E-05
1.163,   7.417E-05
1.164,   7.416E-05
1.165,   7.384E-05
1.166,   7.385E-05
1.167,   7.376E-05
1.168,   7.392E-05
1.169,   7.358E-05
1.17,   7.390E-05
1.171,   7.357E-05
1.172,   7.335E-05
1.173,   7.384E-05
1.174,   7.363E-05
1.175,   7.303E-05
1.176,   7.351E-05
1.177,   7.376E-05
1.178,   7.357E-05
1.179,   7.322E-05
1.18,   7.339E-05
1.181,   7.317E-05
1.182,   7.317E-05
1.183,   7.324E-05
1.184,   7.328E-05
1.185,   7.306E-05
1.186,   7.322E-05
1.187,   7.324E-05
1.188,   7.305E-05
1.189,   7.349E-05
1.19,   7.322E-05
1.191,   7.328E-05
1.192,   7.347E-05
1.193,   7.339E-05
1.194,   7.341E-05
1.195,   7.381E-05
1.196,   7.390E-05
1.197,   7.343E-05
1.198,   7.311E-05
1.199,   7.381E-05
1.2,   7.422E-05
1.201,   7.420E-05
1.202,   7.409E-05
1.203,   7.385E-05
1.204,   7.381E-05
1.205,   7.406E-05
1.206,   7.397E-05
1.207,   7.376E-05
1.208,   7.406E-05
1.209,   7.389E-05
1.21,   7.452E-05
1.211,   7.447E-05
1.212,   7.433E-05
1.213,   7.393E-05
1.214,   7.439E-05
1.215,   7.470E-05
1.216,   7.482E-05
1.217,   7.481E-05
1.218,   7.458E-05
1.219,   7.466E-05
1.22,   7.514E-05
1.221,   7.505E-05
1.222,   7.470E-05
1.223,   7.516E-05
1.224,   7.511E-05
1.225,   7.536E-05
1.226,   7.585E-05
1.227,   7.576E-05
1.228,   7.590E-05
1.229,   7.592E-05
1.23,   7.574E-05
1.231,   7.585E-05
1.232,   7.628E-05
1.233,   7.633E-05
1.234,   7.638E-05
1.235,   7.655E-05
1.236,   7.658E-05
1.237,   7.709E-05
1.238,   7.679E-05
1.239,   7.731E-05
1.24,   7.762E-05
1.241,   7.747E-05
1.242,   7.730E-05
1.243,   7.773E-05
1.244,   7.779E-05
1.245,   7.812E-05
1.246,   7.831E-05
1.247,   7.862E-05
1.248,   7.847E-05
1.249,   7.851E-05
1.25,   7.836E-05
1.251,   7.895E-05
1.252,   7.898E-05
1.253,   7.898E-05
1.254,   7.944E-05
1.255,   7.973E-05
1.256,   8.012E-05
1.257,   8.047E-05
1.258,   8.078E-05
1.259,   8.074E-05
1.26,   8.076E-05
1.261,   8.071E-05
1.262,   8.070E-05
1.263,   8.124E-05
1.264,   8.155E-05
1.265,   8.127E-05
1.266,   8.120E-05
1.267,   8.203E-05
1.268,   8.219E-05
1.269,   8.228E-05
1.27,   8.236E-05
1.271,   8.246E-05
1.272,   8.316E-05
1.273,   8.355E-05
1.274,   8.325E-05
1.275,   8.362E-05
1.276,   8.411E-05
1.277,   8.412E-05
1.278,   8.412E-05
1.279,   8.458E-05
1.28,   8.471E-05
1.281,   8.482E-05
1.282,   8.544E-05
1.283,   8.593E-05
1.284,   8.600E-05
1.285,   8.614E-05
1.286,   8.614E-05
1.287,   8.689E-05
1.288,   8.725E-05
1.289,   8.766E-05
1.29,   8.752E-05
1.291,   8.766E-05
1.292,   8.843E-05
1.293,   8.865E-05
1.294,   8.868E-05
1.295,   8.951E-05
1.296,   8.977E-05
1.297,   8.993E-05
1.298,   9.058E-05
1.299,   9.068E-05
1.3,   9.060E-05
1.301,   9.138E-05
1.302,   9.219E-05
1.303,   9.158E-05
1.304,   9.227E-05
1.305,   9.268E-05
1.306,   9.360E-05
1.307,   9.368E-05
1.308,   9.397E-05
1.309,   9.414E-05
1.31,   9.493E-05
1.311,   9.522E-05
1.312,   9.530E-05
1.313,   9.624E-05
1.314,   9.677E-05
1.315,   9.706E-05
1.316,   9.790E-05
1.317,   9.809E-05
1.318,   9.846E-05
1.319,   9.895E-05
1.32,   9.939E-05
1.321,   1.000E-04
1.322,   1.006E-04
1.323,   1.015E-04
1.324,   1.019E-04
1.325,   1.020E-04
1.326,   1.024E-04
1.327,   1.029E-04
1.328,   1.036E-04
1.329,   1.042E-04
1.33,   1.048E-04
1.331,   1.055E-04
1.332,   1.058E-04
1.333,   1.067E-04
1.334,   1.072E-04
1.335,   1.078E-04
1.336,   1.088E-04
1.337,   1.089E-04
1.338,   1.097E-04
1.339,   1.103E-04
1.34,   1.105E-04
1.341,   1.120E-04
1.342,   1.125E-04
1.343,   1.130E-04
1.344,   1.141E-04
1.345,   1.145E-04
1.346,   1.150E-04
1.347,   1.156E-04
1.348,   1.165E-04
1.349,   1.170E-04
1.35,   1.168E-04
1.351,   1.177E-04
1.352,   1.189E-04
1.353,   1.192E-04
1.354,   1.197E-04
1.355,   1.201E-04
1.356,   1.212E-04
1.357,   1.217E-04
1.358,   1.227E-04
1.359,   1.235E-04
1.36,   1.236E-04
1.361,   1.243E-04
1.362,   1.252E-04
1.363,   1.261E-04
1.364,   1.267E-04
1.365,   1.274E-04
1.366,   1.287E-04
1.367,   1.288E-04
1.368,   1.299E-04
1.369,   1.308E-04
1.37,   1.313E-04
1.371,   1.325E-04
1.372,   1.337E-04
1.373,   1.351E-04
1.374,   1.358E-04
1.375,   1.370E-04
1.376,   1.378E-04
1.377,   1.385E-04
1.378,   1.399E-04
1.379,   1.412E-04
1.38,   1.423E-04
1.381,   1.440E-04
1.382,   1.454E-04
1.383,   1.465E-04
1.384,   1.485E-04
1.385,   1.498E-04
1.386,   1.515E-04
1.387,   1.535E-04
1.388,   1.555E-04
1.389,   1.570E-04
1.39,   1.586E-04
1.391,   1.602E-04
1.392,   1.617E-04
1.393,   1.640E-04
1.394,   1.660E-04
1.395,   1.679E-04
1.396,   1.703E-04
1.397,   1.724E-04
1.398,   1.752E-04
1.399,   1.776E-04
1.4,   1.805E-04
1.401,   1.827E-04
1.402,   1.855E-04
1.403,   1.886E-04
1.404,   1.913E-04
1.405,   1.940E-04
1.406,   1.971E-04
1.407,   2.002E-04
1.408,   2.036E-04
1.409,   2.067E-04
1.41,   2.103E-04
1.411,   2.138E-04
1.412,   2.171E-04
1.413,   2.209E-04
1.414,   2.246E-04
1.415,   2.289E-04
1.416,   2.332E-04
1.417,   2.376E-04
1.418,   2.414E-04
1.419,   2.462E-04
1.42,   2.506E-04
1.421,   2.559E-04
1.422,   2.605E-04
1.423,   2.651E-04
1.424,   2.705E-04
1.425,   2.757E-04
1.426,   2.811E-04
1.427,   2.867E-04
1.428,   2.932E-04
1.429,   2.990E-04
1.43,   3.048E-04
1.431,   3.108E-04
1.432,   3.170E-04
1.433,   3.235E-04
1.434,   3.305E-04
1.435,   3.370E-04
1.436,   3.436E-04
1.437,   3.511E-04
1.438,   3.589E-04
1.439,   3.662E-04
1.44,   3.733E-04
1.441,   3.811E-04
1.442,   3.894E-04
1.443,   3.970E-04
1.444,   4.054E-04
1.445,   4.143E-04
1.446,   4.222E-04
1.447,   4.309E-04
1.448,   4.405E-04
1.449,   4.498E-04
1.45,   4.589E-04
1.451,   4.682E-04
1.452,   4.779E-04
1.453,   4.878E-04
1.454,   4.979E-04
1.455,   5.087E-04
1.456,   5.192E-04
1.457,   5.295E-04
1.458,   5.411E-04
1.459,   5.525E-04
1.46,   5.632E-04
1.461,   5.744E-04
1.462,   5.871E-04
1.463,   5.978E-04
1.464,   6.084E-04
1.465,   6.203E-04
1.466,   6.328E-04
1.467,   6.452E-04
1.468,   6.587E-04
1.469,   6.711E-04
1.47,   6.832E-04
1.471,   6.965E-04
1.472,   7.090E-04
1.473,   7.212E-04
1.474,   7.354E-04
1.475,   7.509E-04
1.476,   7.638E-04
1.477,   7.776E-04
1.478,   7.916E-04
1.479,   8.052E-04
1.48,   8.189E-04
1.481,   8.338E-04
1.482,   8.487E-04
1.483,   8.627E-04
1.484,   8.765E-04
1.485,   8.917E-04
1.486,   9.065E-04
1.487,   9.209E-04
1.488,   9.355E-04
1.489,   9.495E-04
1.49,   9.643E-04
1.491,   9.800E-04
1.492,   9.949E-04
1.493,   1.010E-03
1.494,   1.026E-03
1.495,   1.039E-03
1.496,   1.055E-03
1.497,   1.071E-03
1.498,   1.086E-03
1.499,   1.101E-03
1.5,   1.116E-03
1.501,   1.131E-03
1.502,   1.146E-03
1.503,   1.161E-03
1.504,   1.176E-03
1.505,   1.191E-03
1.506,   1.207E-03
1.507,   1.221E-03
1.508,   1.236E-03
1.509,   1.250E-03
1.51,   1.265E-03
1.511,   1.280E-03
1.512,   1.295E-03
1.513,   1.310E-03
1.514,   1.325E-03
1.515,   1.339E-03
1.516,   1.353E-03
1.517,   1.370E-03
1.518,   1.383E-03
1.519,   1.399E-03
1.52,   1.414E-03
1.521,   1.429E-03
1.522,   1.443E-03
1.523,   1.458E-03
1.524,   1.472E-03
1.525,   1.487E-03
1.526,   1.501E-03
1.527,   1.514E-03
1.528,   1.528E-03
1.529,   1.543E-03
1.53,   1.557E-03
1.531,   1.571E-03
1.532,   1.586E-03
1.533,   1.600E-03
1.534,   1.614E-03
1.535,   1.629E-03
1.536,   1.643E-03
1.537,   1.656E-03
1.538,   1.670E-03
1.539,   1.684E-03
1.54,   1.697E-03
1.541,   1.709E-03
1.542,   1.724E-03
1.543,   1.736E-03
1.544,   1.751E-03
1.545,   1.763E-03
1.546,   1.776E-03
1.547,   1.790E-03
1.548,   1.800E-03
1.549,   1.813E-03
1.55,   1.825E-03
1.551,   1.836E-03
1.552,   1.849E-03
1.553,   1.862E-03
1.554,   1.873E-03
1.555,   1.887E-03
1.556,   1.897E-03
1.557,   1.908E-03
1.558,   1.919E-03
1.559,   1.932E-03
1.56,   1.941E-03
1.561,   1.952E-03
1.562,   1.963E-03
1.563,   1.971E-03
1.564,   1.982E-03
1.565,   1.992E-03