File: Experimental Records, Raw Data, and Supplementary Notes and Figures/batch4/final500/B4_VARIANCE_500_#4_High_Quality(#28)-277mV.txt
Mar. 28, 2023   11:43:00
Linear Sweep Voltammetry
File: d:\current work\al_oer\electrochemical test data\batch 4\500\B4_VARIANCE_500_#4_High_Quality(#28)-277mV.txt
Data Source:  Experiment
Instrument Model:  CHI660E
Header:
Note:

Init E (V) = 1.097

Final E (V) = 1.521

Scan Rate (V/s) = 0.010
Sample Interval (V) = 0.001
Quiet Time (sec) = 2
Sensitivity (A/V) = 0.001
Comp R (ohm) = 6.4

Results:

Channel 1:

Potential/V, Current/A
1.097,   1.184e-4
1.098,   1.102e-4
1.099,   1.025e-4
1.100,   9.552e-5
1.101,   8.949e-5
1.102,   8.406e-5
1.103,   7.927e-5
1.104,   7.507e-5
1.105,   7.128e-5
1.106,   6.790e-5
1.107,   6.482e-5
1.108,   6.198e-5
1.109,   5.944e-5
1.110,   5.713e-5
1.111,   5.503e-5
1.112,   5.312e-5
1.113,   5.131e-5
1.114,   4.970e-5
1.115,   4.825e-5
1.116,   4.681e-5
1.117,   4.553e-5
1.118,   4.439e-5
1.119,   4.328e-5
1.120,   4.226e-5
1.121,   4.127e-5
1.122,   4.041e-5
1.123,   3.957e-5
1.124,   3.878e-5
1.125,   3.806e-5
1.126,   3.746e-5
1.127,   3.686e-5
1.128,   3.625e-5
1.129,   3.570e-5
1.130,   3.521e-5
1.131,   3.471e-5
1.132,   3.425e-5
1.133,   3.383e-5
1.134,   3.336e-5
1.135,   3.298e-5
1.136,   3.265e-5
1.137,   3.226e-5
1.138,   3.193e-5
1.139,   3.160e-5
1.140,   3.131e-5
1.141,   3.104e-5
1.142,   3.075e-5
1.143,   3.055e-5
1.144,   3.032e-5
1.145,   3.007e-5
1.146,   2.988e-5
1.147,   2.972e-5
1.148,   2.951e-5
1.149,   2.936e-5
1.150,   2.920e-5
1.151,   2.905e-5
1.152,   2.892e-5
1.153,   2.879e-5
1.154,   2.863e-5
1.155,   2.851e-5
1.156,   2.843e-5
1.157,   2.833e-5
1.158,   2.818e-5
1.159,   2.807e-5
1.160,   2.799e-5
1.161,   2.793e-5
1.162,   2.786e-5
1.163,   2.777e-5
1.164,   2.771e-5
1.165,   2.767e-5
1.166,   2.760e-5
1.167,   2.757e-5
1.168,   2.753e-5
1.169,   2.752e-5
1.170,   2.749e-5
1.171,   2.747e-5
1.172,   2.739e-5
1.173,   2.739e-5
1.174,   2.732e-5
1.175,   2.730e-5
1.176,   2.735e-5
1.177,   2.729e-5
1.178,   2.727e-5
1.179,   2.729e-5
1.180,   2.725e-5
1.181,   2.728e-5
1.182,   2.731e-5
1.183,   2.732e-5
1.184,   2.735e-5
1.185,   2.734e-5
1.186,   2.739e-5
1.187,   2.738e-5
1.188,   2.739e-5
1.189,   2.745e-5
1.190,   2.743e-5
1.191,   2.744e-5
1.192,   2.749e-5
1.193,   2.748e-5
1.194,   2.754e-5
1.195,   2.757e-5
1.196,   2.757e-5
1.197,   2.760e-5
1.198,   2.764e-5
1.199,   2.768e-5
1.200,   2.771e-5
1.201,   2.773e-5
1.202,   2.780e-5
1.203,   2.787e-5
1.204,   2.785e-5
1.205,   2.794e-5
1.206,   2.797e-5
1.207,   2.803e-5
1.208,   2.813e-5
1.209,   2.814e-5
1.210,   2.822e-5
1.211,   2.827e-5
1.212,   2.831e-5
1.213,   2.837e-5
1.214,   2.842e-5
1.215,   2.844e-5
1.216,   2.853e-5
1.217,   2.858e-5
1.218,   2.861e-5
1.219,   2.864e-5
1.220,   2.869e-5
1.221,   2.879e-5
1.222,   2.886e-5
1.223,   2.892e-5
1.224,   2.898e-5
1.225,   2.897e-5
1.226,   2.908e-5
1.227,   2.914e-5
1.228,   2.915e-5
1.229,   2.926e-5
1.230,   2.929e-5
1.231,   2.934e-5
1.232,   2.944e-5
1.233,   2.949e-5
1.234,   2.955e-5
1.235,   2.961e-5
1.236,   2.966e-5
1.237,   2.972e-5
1.238,   2.974e-5
1.239,   2.980e-5
1.240,   2.989e-5
1.241,   2.992e-5
1.242,   2.999e-5
1.243,   3.006e-5
1.244,   3.009e-5
1.245,   3.020e-5
1.246,   3.032e-5
1.247,   3.036e-5
1.248,   3.044e-5
1.249,   3.048e-5
1.250,   3.054e-5
1.251,   3.063e-5
1.252,   3.071e-5
1.253,   3.081e-5
1.254,   3.085e-5
1.255,   3.090e-5
1.256,   3.099e-5
1.257,   3.107e-5
1.258,   3.114e-5
1.259,   3.121e-5
1.260,   3.126e-5
1.261,   3.135e-5
1.262,   3.143e-5
1.263,   3.147e-5
1.264,   3.159e-5
1.265,   3.166e-5
1.266,   3.178e-5
1.267,   3.187e-5
1.268,   3.191e-5
1.269,   3.201e-5
1.270,   3.207e-5
1.271,   3.214e-5
1.272,   3.222e-5
1.273,   3.234e-5
1.274,   3.246e-5
1.275,   3.255e-5
1.276,   3.261e-5
1.277,   3.273e-5
1.278,   3.281e-5
1.279,   3.287e-5
1.280,   3.300e-5
1.281,   3.311e-5
1.282,   3.322e-5
1.283,   3.334e-5
1.284,   3.344e-5
1.285,   3.357e-5
1.286,   3.370e-5
1.287,   3.383e-5
1.288,   3.393e-5
1.289,   3.398e-5
1.290,   3.415e-5
1.291,   3.424e-5
1.292,   3.427e-5
1.293,   3.439e-5
1.294,   3.449e-5
1.295,   3.460e-5
1.296,   3.469e-5
1.297,   3.483e-5
1.298,   3.497e-5
1.299,   3.510e-5
1.300,   3.524e-5
1.301,   3.535e-5
1.302,   3.549e-5
1.303,   3.563e-5
1.304,   3.575e-5
1.305,   3.588e-5
1.306,   3.605e-5
1.307,   3.620e-5
1.308,   3.632e-5
1.309,   3.651e-5
1.310,   3.663e-5
1.311,   3.676e-5
1.312,   3.693e-5
1.313,   3.708e-5
1.314,   3.728e-5
1.315,   3.747e-5
1.316,   3.763e-5
1.317,   3.779e-5
1.318,   3.795e-5
1.319,   3.813e-5
1.320,   3.833e-5
1.321,   3.850e-5
1.322,   3.880e-5
1.323,   3.907e-5
1.324,   3.921e-5
1.325,   3.945e-5
1.326,   3.962e-5
1.327,   3.985e-5
1.328,   4.010e-5
1.329,   4.028e-5
1.330,   4.056e-5
1.331,   4.082e-5
1.332,   4.097e-5
1.333,   4.110e-5
1.334,   4.132e-5
1.335,   4.159e-5
1.336,   4.188e-5
1.337,   4.207e-5
1.338,   4.234e-5
1.339,   4.265e-5
1.340,   4.292e-5
1.341,   4.327e-5
1.342,   4.363e-5
1.343,   4.396e-5
1.344,   4.428e-5
1.345,   4.458e-5
1.346,   4.497e-5
1.347,   4.533e-5
1.348,   4.571e-5
1.349,   4.610e-5
1.350,   4.640e-5
1.351,   4.677e-5
1.352,   4.721e-5
1.353,   4.748e-5
1.354,   4.796e-5
1.355,   4.846e-5
1.356,   4.883e-5
1.357,   4.928e-5
1.358,   4.973e-5
1.359,   5.025e-5
1.360,   5.080e-5
1.361,   5.137e-5
1.362,   5.198e-5
1.363,   5.253e-5
1.364,   5.310e-5
1.365,   5.377e-5
1.366,   5.434e-5
1.367,   5.499e-5
1.368,   5.572e-5
1.369,   5.636e-5
1.370,   5.708e-5
1.371,   5.783e-5
1.372,   5.863e-5
1.373,   5.949e-5
1.374,   6.038e-5
1.375,   6.134e-5
1.376,   6.228e-5
1.377,   6.326e-5
1.378,   6.432e-5
1.379,   6.543e-5
1.380,   6.664e-5
1.381,   6.790e-5
1.382,   6.911e-5
1.383,   7.046e-5
1.384,   7.186e-5
1.385,   7.329e-5
1.386,   7.498e-5
1.387,   7.677e-5
1.388,   7.855e-5
1.389,   8.050e-5
1.390,   8.252e-5
1.391,   8.462e-5
1.392,   8.682e-5
1.393,   8.913e-5
1.394,   9.168e-5
1.395,   9.424e-5
1.396,   9.696e-5
1.397,   9.989e-5
1.398,   1.029e-4
1.399,   1.060e-4
1.400,   1.094e-4
1.401,   1.129e-4
1.402,   1.167e-4
1.403,   1.206e-4
1.404,   1.247e-4
1.405,   1.291e-4
1.406,   1.337e-4
1.407,   1.384e-4
1.408,   1.435e-4
1.409,   1.486e-4
1.410,   1.541e-4
1.411,   1.598e-4
1.412,   1.656e-4
1.413,   1.718e-4
1.414,   1.783e-4
1.415,   1.850e-4
1.416,   1.920e-4
1.417,   1.992e-4
1.418,   2.068e-4
1.419,   2.147e-4
1.420,   2.228e-4
1.421,   2.313e-4
1.422,   2.400e-4
1.423,   2.492e-4
1.424,   2.588e-4
1.425,   2.684e-4
1.426,   2.786e-4
1.427,   2.890e-4
1.428,   2.998e-4
1.429,   3.110e-4
1.430,   3.224e-4
1.431,   3.340e-4
1.432,   3.462e-4
1.433,   3.585e-4
1.434,   3.714e-4
1.435,   3.844e-4
1.436,   3.979e-4
1.437,   4.120e-4
1.438,   4.265e-4
1.439,   4.414e-4
1.440,   4.562e-4
1.441,   4.713e-4
1.442,   4.873e-4
1.443,   5.035e-4
1.444,   5.197e-4
1.445,   5.365e-4
1.446,   5.538e-4
1.447,   5.714e-4
1.448,   5.894e-4
1.449,   6.070e-4
1.450,   6.257e-4
1.451,   6.448e-4
1.452,   6.639e-4
1.453,   6.832e-4
1.454,   7.031e-4
1.455,   7.230e-4
1.456,   7.432e-4
1.457,   7.638e-4
1.458,   7.850e-4
1.459,   8.066e-4
1.460,   8.281e-4
1.461,   8.495e-4
1.462,   8.718e-4
1.463,   8.940e-4
1.464,   9.166e-4
1.465,   9.394e-4
1.466,   9.626e-4
1.467,   9.851e-4
1.468,   1.008e-3
1.469,   1.032e-3
1.470,   1.055e-3
1.471,   1.079e-3
1.472,   1.103e-3
1.473,   1.127e-3
1.474,   1.151e-3
1.475,   1.175e-3
1.476,   1.200e-3
1.477,   1.224e-3
1.478,   1.248e-3
1.479,   1.272e-3
1.480,   1.296e-3
1.481,   1.320e-3
1.482,   1.345e-3
1.483,   1.371e-3
1.484,   1.395e-3
1.485,   1.421e-3
1.486,   1.444e-3
1.487,   1.469e-3
1.488,   1.492e-3
1.489,   1.517e-3
1.490,   1.542e-3
1.491,   1.566e-3
1.492,   1.590e-3
1.493,   1.615e-3
1.494,   1.639e-3
1.495,   1.662e-3
1.496,   1.686e-3
1.497,   1.710e-3
1.498,   1.732e-3
1.499,   1.753e-3
1.500,   1.774e-3
1.501,   1.797e-3
1.502,   1.821e-3
1.503,   1.842e-3
1.504,   1.864e-3
1.505,   1.890e-3
1.506,   1.912e-3
1.507,   1.933e-3
1.508,   1.952e-3
1.509,   1.973e-3
1.510,   1.993e-3
1.511,   2.013e-3
1.512,   2.030e-3
1.513,   2.050e-3
1.514,   2.070e-3
1.515,   2.087e-3
1.516,   2.106e-3
1.517,   2.128e-3
1.518,   2.146e-3
1.519,   2.163e-3
1.520,   2.180e-3
1.521,   2.197e-3