File: Experimental Records, Raw Data, and Supplementary Notes and Figures/batch4/final500/B4_VARIANCE_500_#3_High_Quality(#27)-248mV.txt
Mar. 28, 2023   12:50:10
Linear Sweep Voltammetry
File: d:\current work\al_oer\electrochemical test data\batch 4\500\B4_VARIANCE_500_#3_High_Quality(#27)-248mV.txt
Data Source:  Experiment
Instrument Model:  CHI660E
Header:
Note:

Init E (V) = 1.084

Final E (V) = 1.525

Scan Rate (V/s) = 0.010
Sample Interval (V) = 0.001
Quiet Time (sec) = 2
Sensitivity (A/V) = 0.001
Comp R (ohm) = 5.0

Results:

Channel 1:

Potential/V, Current/A
1.084,   3.490e-5
1.085,   3.371e-5
1.086,   3.188e-5
1.087,   3.020e-5
1.088,   2.876e-5
1.089,   2.751e-5
1.090,   2.643e-5
1.091,   2.540e-5
1.092,   2.451e-5
1.093,   2.369e-5
1.094,   2.304e-5
1.095,   2.232e-5
1.096,   2.174e-5
1.097,   2.123e-5
1.098,   2.081e-5
1.099,   2.041e-5
1.100,   1.993e-5
1.101,   1.954e-5
1.102,   1.913e-5
1.103,   1.876e-5
1.104,   1.846e-5
1.105,   1.823e-5
1.106,   1.794e-5
1.107,   1.769e-5
1.108,   1.745e-5
1.109,   1.721e-5
1.110,   1.701e-5
1.111,   1.683e-5
1.112,   1.666e-5
1.113,   1.652e-5
1.114,   1.637e-5
1.115,   1.623e-5
1.116,   1.608e-5
1.117,   1.598e-5
1.118,   1.585e-5
1.119,   1.568e-5
1.120,   1.557e-5
1.121,   1.545e-5
1.122,   1.538e-5
1.123,   1.531e-5
1.124,   1.521e-5
1.125,   1.513e-5
1.126,   1.503e-5
1.127,   1.492e-5
1.128,   1.487e-5
1.129,   1.481e-5
1.130,   1.473e-5
1.131,   1.470e-5
1.132,   1.464e-5
1.133,   1.454e-5
1.134,   1.453e-5
1.135,   1.447e-5
1.136,   1.446e-5
1.137,   1.442e-5
1.138,   1.440e-5
1.139,   1.436e-5
1.140,   1.433e-5
1.141,   1.431e-5
1.142,   1.430e-5
1.143,   1.429e-5
1.144,   1.425e-5
1.145,   1.426e-5
1.146,   1.426e-5
1.147,   1.425e-5
1.148,   1.421e-5
1.149,   1.422e-5
1.150,   1.420e-5
1.151,   1.418e-5
1.152,   1.415e-5
1.153,   1.418e-5
1.154,   1.417e-5
1.155,   1.418e-5
1.156,   1.418e-5
1.157,   1.422e-5
1.158,   1.423e-5
1.159,   1.423e-5
1.160,   1.421e-5
1.161,   1.423e-5
1.162,   1.427e-5
1.163,   1.427e-5
1.164,   1.428e-5
1.165,   1.433e-5
1.166,   1.436e-5
1.167,   1.435e-5
1.168,   1.440e-5
1.169,   1.443e-5
1.170,   1.440e-5
1.171,   1.447e-5
1.172,   1.451e-5
1.173,   1.450e-5
1.174,   1.455e-5
1.175,   1.457e-5
1.176,   1.461e-5
1.177,   1.462e-5
1.178,   1.465e-5
1.179,   1.471e-5
1.180,   1.472e-5
1.181,   1.480e-5
1.182,   1.481e-5
1.183,   1.483e-5
1.184,   1.488e-5
1.185,   1.489e-5
1.186,   1.492e-5
1.187,   1.498e-5
1.188,   1.502e-5
1.189,   1.507e-5
1.190,   1.512e-5
1.191,   1.515e-5
1.192,   1.520e-5
1.193,   1.523e-5
1.194,   1.530e-5
1.195,   1.538e-5
1.196,   1.540e-5
1.197,   1.545e-5
1.198,   1.554e-5
1.199,   1.555e-5
1.200,   1.558e-5
1.201,   1.568e-5
1.202,   1.565e-5
1.203,   1.576e-5
1.204,   1.584e-5
1.205,   1.591e-5
1.206,   1.598e-5
1.207,   1.602e-5
1.208,   1.610e-5
1.209,   1.618e-5
1.210,   1.623e-5
1.211,   1.630e-5
1.212,   1.635e-5
1.213,   1.645e-5
1.214,   1.650e-5
1.215,   1.655e-5
1.216,   1.662e-5
1.217,   1.668e-5
1.218,   1.673e-5
1.219,   1.681e-5
1.220,   1.690e-5
1.221,   1.693e-5
1.222,   1.698e-5
1.223,   1.706e-5
1.224,   1.713e-5
1.225,   1.723e-5
1.226,   1.730e-5
1.227,   1.740e-5
1.228,   1.741e-5
1.229,   1.749e-5
1.230,   1.761e-5
1.231,   1.765e-5
1.232,   1.776e-5
1.233,   1.784e-5
1.234,   1.789e-5
1.235,   1.796e-5
1.236,   1.802e-5
1.237,   1.808e-5
1.238,   1.814e-5
1.239,   1.823e-5
1.240,   1.831e-5
1.241,   1.838e-5
1.242,   1.843e-5
1.243,   1.853e-5
1.244,   1.861e-5
1.245,   1.865e-5
1.246,   1.872e-5
1.247,   1.881e-5
1.248,   1.888e-5
1.249,   1.897e-5
1.250,   1.906e-5
1.251,   1.916e-5
1.252,   1.925e-5
1.253,   1.935e-5
1.254,   1.941e-5
1.255,   1.956e-5
1.256,   1.966e-5
1.257,   1.974e-5
1.258,   1.984e-5
1.259,   1.996e-5
1.260,   2.001e-5
1.261,   2.015e-5
1.262,   2.029e-5
1.263,   2.036e-5
1.264,   2.045e-5
1.265,   2.055e-5
1.266,   2.065e-5
1.267,   2.078e-5
1.268,   2.085e-5
1.269,   2.093e-5
1.270,   2.104e-5
1.271,   2.113e-5
1.272,   2.127e-5
1.273,   2.134e-5
1.274,   2.145e-5
1.275,   2.159e-5
1.276,   2.168e-5
1.277,   2.182e-5
1.278,   2.194e-5
1.279,   2.208e-5
1.280,   2.223e-5
1.281,   2.235e-5
1.282,   2.252e-5
1.283,   2.267e-5
1.284,   2.280e-5
1.285,   2.306e-5
1.286,   2.319e-5
1.287,   2.333e-5
1.288,   2.350e-5
1.289,   2.356e-5
1.290,   2.373e-5
1.291,   2.391e-5
1.292,   2.406e-5
1.293,   2.423e-5
1.294,   2.446e-5
1.295,   2.458e-5
1.296,   2.468e-5
1.297,   2.481e-5
1.298,   2.503e-5
1.299,   2.524e-5
1.300,   2.539e-5
1.301,   2.555e-5
1.302,   2.576e-5
1.303,   2.595e-5
1.304,   2.618e-5
1.305,   2.639e-5
1.306,   2.659e-5
1.307,   2.681e-5
1.308,   2.697e-5
1.309,   2.721e-5
1.310,   2.743e-5
1.311,   2.762e-5
1.312,   2.787e-5
1.313,   2.813e-5
1.314,   2.832e-5
1.315,   2.860e-5
1.316,   2.876e-5
1.317,   2.897e-5
1.318,   2.922e-5
1.319,   2.949e-5
1.320,   2.976e-5
1.321,   2.999e-5
1.322,   3.026e-5
1.323,   3.057e-5
1.324,   3.086e-5
1.325,   3.116e-5
1.326,   3.147e-5
1.327,   3.176e-5
1.328,   3.215e-5
1.329,   3.248e-5
1.330,   3.277e-5
1.331,   3.312e-5
1.332,   3.346e-5
1.333,   3.380e-5
1.334,   3.423e-5
1.335,   3.462e-5
1.336,   3.500e-5
1.337,   3.543e-5
1.338,   3.585e-5
1.339,   3.638e-5
1.340,   3.687e-5
1.341,   3.729e-5
1.342,   3.777e-5
1.343,   3.816e-5
1.344,   3.869e-5
1.345,   3.925e-5
1.346,   3.978e-5
1.347,   4.035e-5
1.348,   4.102e-5
1.349,   4.151e-5
1.350,   4.210e-5
1.351,   4.269e-5
1.352,   4.343e-5
1.353,   4.410e-5
1.354,   4.485e-5
1.355,   4.563e-5
1.356,   4.643e-5
1.357,   4.744e-5
1.358,   4.836e-5
1.359,   4.929e-5
1.360,   5.049e-5
1.361,   5.170e-5
1.362,   5.267e-5
1.363,   5.376e-5
1.364,   5.485e-5
1.365,   5.596e-5
1.366,   5.720e-5
1.367,   5.852e-5
1.368,   5.996e-5
1.369,   6.155e-5
1.370,   6.321e-5
1.371,   6.506e-5
1.372,   6.681e-5
1.373,   6.883e-5
1.374,   7.098e-5
1.375,   7.319e-5
1.376,   7.563e-5
1.377,   7.829e-5
1.378,   8.104e-5
1.379,   8.396e-5
1.380,   8.713e-5
1.381,   9.058e-5
1.382,   9.421e-5
1.383,   9.812e-5
1.384,   1.025e-4
1.385,   1.072e-4
1.386,   1.123e-4
1.387,   1.177e-4
1.388,   1.236e-4
1.389,   1.299e-4
1.390,   1.370e-4
1.391,   1.444e-4
1.392,   1.525e-4
1.393,   1.610e-4
1.394,   1.697e-4
1.395,   1.790e-4
1.396,   1.886e-4
1.397,   1.982e-4
1.398,   2.080e-4
1.399,   2.178e-4
1.400,   2.273e-4
1.401,   2.365e-4
1.402,   2.453e-4
1.403,   2.533e-4
1.404,   2.605e-4
1.405,   2.668e-4
1.406,   2.722e-4
1.407,   2.770e-4
1.408,   2.812e-4
1.409,   2.854e-4
1.410,   2.896e-4
1.411,   2.938e-4
1.412,   2.991e-4
1.413,   3.055e-4
1.414,   3.122e-4
1.415,   3.201e-4
1.416,   3.293e-4
1.417,   3.385e-4
1.418,   3.495e-4
1.419,   3.610e-4
1.420,   3.733e-4
1.421,   3.874e-4
1.422,   4.015e-4
1.423,   4.171e-4
1.424,   4.336e-4
1.425,   4.517e-4
1.426,   4.690e-4
1.427,   4.860e-4
1.428,   5.053e-4
1.429,   5.239e-4
1.430,   5.440e-4
1.431,   5.662e-4
1.432,   5.874e-4
1.433,   6.100e-4
1.434,   6.317e-4
1.435,   6.548e-4
1.436,   6.769e-4
1.437,   7.020e-4
1.438,   7.293e-4
1.439,   7.545e-4
1.440,   7.828e-4
1.441,   8.102e-4
1.442,   8.386e-4
1.443,   8.651e-4
1.444,   8.926e-4
1.445,   9.198e-4
1.446,   9.470e-4
1.447,   9.763e-4
1.448,   1.005e-3
1.449,   1.035e-3
1.450,   1.065e-3
1.451,   1.096e-3
1.452,   1.128e-3
1.453,   1.155e-3
1.454,   1.185e-3
1.455,   1.215e-3
1.456,   1.245e-3
1.457,   1.276e-3
1.458,   1.308e-3
1.459,   1.338e-3
1.460,   1.369e-3
1.461,   1.398e-3
1.462,   1.429e-3
1.463,   1.458e-3
1.464,   1.490e-3
1.465,   1.522e-3
1.466,   1.554e-3
1.467,   1.586e-3
1.468,   1.617e-3
1.469,   1.648e-3
1.470,   1.679e-3
1.471,   1.710e-3
1.472,   1.743e-3
1.473,   1.772e-3
1.474,   1.803e-3
1.475,   1.834e-3
1.476,   1.866e-3
1.477,   1.899e-3
1.478,   1.928e-3
1.479,   1.956e-3
1.480,   1.983e-3
1.481,   2.009e-3
1.482,   2.031e-3
1.483,   2.057e-3
1.484,   2.080e-3
1.485,   2.099e-3
1.486,   2.119e-3
1.487,   2.139e-3
1.488,   2.159e-3
1.489,   2.178e-3
1.490,   2.195e-3
1.491,   2.214e-3
1.492,   2.231e-3
1.493,   2.251e-3
1.494,   2.269e-3
1.495,   2.288e-3
1.496,   2.304e-3
1.497,   2.318e-3
1.498,   2.336e-3
1.499,   2.351e-3
1.500,   2.368e-3
1.501,   2.382e-3
1.502,   2.392e-3
1.503,   2.407e-3
1.504,   2.419e-3
1.505,   2.431e-3
1.506,   2.441e-3
1.507,   2.452e-3
1.508,   2.462e-3
1.509,   2.472e-3
1.510,   2.480e-3
1.511,   2.486e-3
1.512,   2.493e-3
1.513,   2.498e-3
1.514,   2.505e-3
1.515,   2.510e-3
1.516,   2.515e-3
1.517,   2.520e-3
1.518,   2.520e-3
1.519,   2.524e-3
1.520,   2.526e-3
1.521,   2.526e-3
1.522,   2.530e-3
1.523,   2.530e-3
1.524,   2.533e-3
1.525,   2.534e-3