File: Experimental Records, Raw Data, and Supplementary Notes and Figures/batch4/final500/B4_VARIANCE_500_#6_Full(#14)-375mV.txt
Mar. 29, 2023   12:24:19
Linear Sweep Voltammetry
File: d:\current work\al_oer\electrochemical test data\batch 4\500\B4_VARIANCE_500_#6_Full(#14)-375mV.txt
Data Source:  Experiment
Instrument Model:  CHI660E
Header:
Note:

Init E (V) = 1.084

Final E (V) = 1.607

Scan Rate (V/s) = 0.010
Sample Interval (V) = 0.001
Quiet Time (sec) = 2
Sensitivity (A/V) = 0.001
Comp R (ohm) = 5.4

Results:

Channel 1:

Potential/V, Current/A
1.084,   9.743E-05
1.085,   9.508E-05
1.086,   9.140E-05
1.087,   8.766E-05
1.088,   8.475E-05
1.089,   8.259E-05
1.09,   8.030E-05
1.091,   7.790E-05
1.092,   7.598E-05
1.093,   7.398E-05
1.094,   7.236E-05
1.095,   7.104E-05
1.096,   6.968E-05
1.097,   6.837E-05
1.098,   6.706E-05
1.099,   6.603E-05
1.1,   6.520E-05
1.101,   6.405E-05
1.102,   6.284E-05
1.103,   6.175E-05
1.104,   6.088E-05
1.105,   6.023E-05
1.106,   5.954E-05
1.107,   5.865E-05
1.108,   5.786E-05
1.109,   5.723E-05
1.11,   5.697E-05
1.111,   5.603E-05
1.112,   5.517E-05
1.113,   5.510E-05
1.114,   5.453E-05
1.115,   5.391E-05
1.116,   5.337E-05
1.117,   5.283E-05
1.118,   5.261E-05
1.119,   5.261E-05
1.12,   5.261E-05
1.121,   5.220E-05
1.122,   5.189E-05
1.123,   5.147E-05
1.124,   5.105E-05
1.125,   5.038E-05
1.126,   5.001E-05
1.127,   4.979E-05
1.128,   4.989E-05
1.129,   4.956E-05
1.13,   4.910E-05
1.131,   4.936E-05
1.132,   4.888E-05
1.133,   4.865E-05
1.134,   4.881E-05
1.135,   4.885E-05
1.136,   4.864E-05
1.137,   4.816E-05
1.138,   4.810E-05
1.139,   4.793E-05
1.14,   4.781E-05
1.141,   4.771E-05
1.142,   4.767E-05
1.143,   4.740E-05
1.144,   4.731E-05
1.145,   4.713E-05
1.146,   4.681E-05
1.147,   4.684E-05
1.148,   4.648E-05
1.149,   4.681E-05
1.15,   4.661E-05
1.151,   4.653E-05
1.152,   4.624E-05
1.153,   4.616E-05
1.154,   4.624E-05
1.155,   4.639E-05
1.156,   4.629E-05
1.157,   4.626E-05
1.158,   4.597E-05
1.159,   4.598E-05
1.16,   4.639E-05
1.161,   4.646E-05
1.162,   4.613E-05
1.163,   4.573E-05
1.164,   4.581E-05
1.165,   4.601E-05
1.166,   4.597E-05
1.167,   4.593E-05
1.168,   4.605E-05
1.169,   4.556E-05
1.17,   4.557E-05
1.171,   4.589E-05
1.172,   4.558E-05
1.173,   4.590E-05
1.174,   4.555E-05
1.175,   4.568E-05
1.176,   4.558E-05
1.177,   4.548E-05
1.178,   4.549E-05
1.179,   4.567E-05
1.18,   4.519E-05
1.181,   4.531E-05
1.182,   4.556E-05
1.183,   4.574E-05
1.184,   4.556E-05
1.185,   4.560E-05
1.186,   4.535E-05
1.187,   4.589E-05
1.188,   4.564E-05
1.189,   4.560E-05
1.19,   4.590E-05
1.191,   4.583E-05
1.192,   4.588E-05
1.193,   4.601E-05
1.194,   4.595E-05
1.195,   4.590E-05
1.196,   4.609E-05
1.197,   4.617E-05
1.198,   4.596E-05
1.199,   4.605E-05
1.2,   4.580E-05
1.201,   4.580E-05
1.202,   4.612E-05
1.203,   4.608E-05
1.204,   4.639E-05
1.205,   4.630E-05
1.206,   4.673E-05
1.207,   4.668E-05
1.208,   4.665E-05
1.209,   4.652E-05
1.21,   4.646E-05
1.211,   4.649E-05
1.212,   4.636E-05
1.213,   4.669E-05
1.214,   4.689E-05
1.215,   4.711E-05
1.216,   4.684E-05
1.217,   4.682E-05
1.218,   4.704E-05
1.219,   4.693E-05
1.22,   4.718E-05
1.221,   4.726E-05
1.222,   4.730E-05
1.223,   4.752E-05
1.224,   4.727E-05
1.225,   4.730E-05
1.226,   4.745E-05
1.227,   4.757E-05
1.228,   4.767E-05
1.229,   4.797E-05
1.23,   4.805E-05
1.231,   4.827E-05
1.232,   4.817E-05
1.233,   4.792E-05
1.234,   4.810E-05
1.235,   4.852E-05
1.236,   4.846E-05
1.237,   4.888E-05
1.238,   4.869E-05
1.239,   4.862E-05
1.24,   4.847E-05
1.241,   4.877E-05
1.242,   4.888E-05
1.243,   4.899E-05
1.244,   4.890E-05
1.245,   4.923E-05
1.246,   4.944E-05
1.247,   4.945E-05
1.248,   4.960E-05
1.249,   4.984E-05
1.25,   4.959E-05
1.251,   4.977E-05
1.252,   5.006E-05
1.253,   5.017E-05
1.254,   5.009E-05
1.255,   5.023E-05
1.256,   5.042E-05
1.257,   5.075E-05
1.258,   5.083E-05
1.259,   5.117E-05
1.26,   5.158E-05
1.261,   5.145E-05
1.262,   5.129E-05
1.263,   5.144E-05
1.264,   5.154E-05
1.265,   5.177E-05
1.266,   5.171E-05
1.267,   5.167E-05
1.268,   5.170E-05
1.269,   5.221E-05
1.27,   5.242E-05
1.271,   5.230E-05
1.272,   5.227E-05
1.273,   5.231E-05
1.274,   5.274E-05
1.275,   5.315E-05
1.276,   5.301E-05
1.277,   5.382E-05
1.278,   5.360E-05
1.279,   5.355E-05
1.28,   5.475E-05
1.281,   5.476E-05
1.282,   5.430E-05
1.283,   5.487E-05
1.284,   5.517E-05
1.285,   5.528E-05
1.286,   5.573E-05
1.287,   5.565E-05
1.288,   5.602E-05
1.289,   5.653E-05
1.29,   5.634E-05
1.291,   5.658E-05
1.292,   5.678E-05
1.293,   5.750E-05
1.294,   5.805E-05
1.295,   5.772E-05
1.296,   5.785E-05
1.297,   5.836E-05
1.298,   5.816E-05
1.299,   5.884E-05
1.3,   5.882E-05
1.301,   5.897E-05
1.302,   5.924E-05
1.303,   5.924E-05
1.304,   5.973E-05
1.305,   5.989E-05
1.306,   6.012E-05
1.307,   6.064E-05
1.308,   6.083E-05
1.309,   6.098E-05
1.31,   6.153E-05
1.311,   6.316E-05
1.312,   6.247E-05
1.313,   6.214E-05
1.314,   6.204E-05
1.315,   6.214E-05
1.316,   6.258E-05
1.317,   6.308E-05
1.318,   6.348E-05
1.319,   6.382E-05
1.32,   6.392E-05
1.321,   6.403E-05
1.322,   6.409E-05
1.323,   6.461E-05
1.324,   6.467E-05
1.325,   6.492E-05
1.326,   6.537E-05
1.327,   6.545E-05
1.328,   6.550E-05
1.329,   6.596E-05
1.33,   6.763E-05
1.331,   6.843E-05
1.332,   6.909E-05
1.333,   6.872E-05
1.334,   6.882E-05
1.335,   6.859E-05
1.336,   6.887E-05
1.337,   6.958E-05
1.338,   6.952E-05
1.339,   7.017E-05
1.34,   7.031E-05
1.341,   7.054E-05
1.342,   7.069E-05
1.343,   7.123E-05
1.344,   7.179E-05
1.345,   7.192E-05
1.346,   7.233E-05
1.347,   7.297E-05
1.348,   7.349E-05
1.349,   7.361E-05
1.35,   7.377E-05
1.351,   7.441E-05
1.352,   7.516E-05
1.353,   7.514E-05
1.354,   7.587E-05
1.355,   7.598E-05
1.356,   7.640E-05
1.357,   7.664E-05
1.358,   7.712E-05
1.359,   7.810E-05
1.36,   7.866E-05
1.361,   7.902E-05
1.362,   7.958E-05
1.363,   8.017E-05
1.364,   8.069E-05
1.365,   8.123E-05
1.366,   8.194E-05
1.367,   8.223E-05
1.368,   8.277E-05
1.369,   8.327E-05
1.37,   8.372E-05
1.371,   8.428E-05
1.372,   8.469E-05
1.373,   8.578E-05
1.374,   8.649E-05
1.375,   8.707E-05
1.376,   8.799E-05
1.377,   8.866E-05
1.378,   8.950E-05
1.379,   9.055E-05
1.38,   9.137E-05
1.381,   9.262E-05
1.382,   9.321E-05
1.383,   9.451E-05
1.384,   9.596E-05
1.385,   9.711E-05
1.386,   9.770E-05
1.387,   9.884E-05
1.388,   9.969E-05
1.389,   1.014E-04
1.39,   1.027E-04
1.391,   1.041E-04
1.392,   1.060E-04
1.393,   1.070E-04
1.394,   1.090E-04
1.395,   1.106E-04
1.396,   1.124E-04
1.397,   1.137E-04
1.398,   1.161E-04
1.399,   1.182E-04
1.4,   1.203E-04
1.401,   1.216E-04
1.402,   1.237E-04
1.403,   1.263E-04
1.404,   1.288E-04
1.405,   1.311E-04
1.406,   1.341E-04
1.407,   1.364E-04
1.408,   1.394E-04
1.409,   1.426E-04
1.41,   1.456E-04
1.411,   1.484E-04
1.412,   1.520E-04
1.413,   1.553E-04
1.414,   1.585E-04
1.415,   1.617E-04
1.416,   1.653E-04
1.417,   1.690E-04
1.418,   1.722E-04
1.419,   1.759E-04
1.42,   1.802E-04
1.421,   1.846E-04
1.422,   1.885E-04
1.423,   1.931E-04
1.424,   1.973E-04
1.425,   2.020E-04
1.426,   2.067E-04
1.427,   2.115E-04
1.428,   2.162E-04
1.429,   2.215E-04
1.43,   2.270E-04
1.431,   2.333E-04
1.432,   2.387E-04
1.433,   2.456E-04
1.434,   2.520E-04
1.435,   2.579E-04
1.436,   2.601E-04
1.437,   2.679E-04
1.438,   2.748E-04
1.439,   2.816E-04
1.44,   2.885E-04
1.441,   2.948E-04
1.442,   3.014E-04
1.443,   3.091E-04
1.444,   3.170E-04
1.445,   3.237E-04
1.446,   3.318E-04
1.447,   3.389E-04
1.448,   3.456E-04
1.449,   3.533E-04
1.45,   3.602E-04
1.451,   3.663E-04
1.452,   3.753E-04
1.453,   3.823E-04
1.454,   3.890E-04
1.455,   3.963E-04
1.456,   4.025E-04
1.457,   4.104E-04
1.458,   4.177E-04
1.459,   4.237E-04
1.46,   4.331E-04
1.461,   4.438E-04
1.462,   4.519E-04
1.463,   4.578E-04
1.464,   4.653E-04
1.465,   4.750E-04
1.466,   4.839E-04
1.467,   4.949E-04
1.468,   5.028E-04
1.469,   5.126E-04
1.47,   5.211E-04
1.471,   5.295E-04
1.472,   5.384E-04
1.473,   5.495E-04
1.474,   5.585E-04
1.475,   5.703E-04
1.476,   5.789E-04
1.477,   5.907E-04
1.478,   6.004E-04
1.479,   6.118E-04
1.48,   6.192E-04
1.481,   6.320E-04
1.482,   6.432E-04
1.483,   6.563E-04
1.484,   6.672E-04
1.485,   6.817E-04
1.486,   6.927E-04
1.487,   7.073E-04
1.488,   7.193E-04
1.489,   7.324E-04
1.49,   7.468E-04
1.491,   7.603E-04
1.492,   7.781E-04
1.493,   7.941E-04
1.494,   8.126E-04
1.495,   8.307E-04
1.496,   8.513E-04
1.497,   8.703E-04
1.498,   8.891E-04
1.499,   9.107E-04
1.5,   9.308E-04
1.501,   9.522E-04
1.502,   9.757E-04
1.503,   9.955E-04
1.504,   1.017E-03
1.505,   1.039E-03
1.506,   1.058E-03
1.507,   1.083E-03
1.508,   1.102E-03
1.509,   1.121E-03
1.51,   1.143E-03
1.511,   1.163E-03
1.512,   1.182E-03
1.513,   1.196E-03
1.514,   1.210E-03
1.515,   1.231E-03
1.516,   1.257E-03
1.517,   1.267E-03
1.518,   1.264E-03
1.519,   1.273E-03
1.52,   1.288E-03
1.521,   1.300E-03
1.522,   1.311E-03
1.523,   1.326E-03
1.524,   1.336E-03
1.525,   1.349E-03
1.526,   1.363E-03
1.527,   1.385E-03
1.528,   1.400E-03
1.529,   1.407E-03
1.53,   1.425E-03
1.531,   1.440E-03
1.532,   1.450E-03
1.533,   1.457E-03
1.534,   1.471E-03
1.535,   1.485E-03
1.536,   1.492E-03
1.537,   1.504E-03
1.538,   1.512E-03
1.539,   1.522E-03
1.54,   1.536E-03
1.541,   1.548E-03
1.542,   1.550E-03
1.543,   1.571E-03
1.544,   1.575E-03
1.545,   1.577E-03
1.546,   1.596E-03
1.547,   1.606E-03
1.548,   1.621E-03
1.549,   1.628E-03
1.55,   1.636E-03
1.551,   1.641E-03
1.552,   1.651E-03
1.553,   1.658E-03
1.554,   1.662E-03
1.555,   1.670E-03
1.556,   1.684E-03
1.557,   1.692E-03
1.558,   1.704E-03
1.559,   1.718E-03
1.56,   1.725E-03
1.561,   1.734E-03
1.562,   1.739E-03
1.563,   1.752E-03
1.564,   1.751E-03
1.565,   1.763E-03
1.566,   1.770E-03
1.567,   1.777E-03
1.568,   1.781E-03
1.569,   1.780E-03
1.57,   1.798E-03
1.571,   1.814E-03
1.572,   1.823E-03
1.573,   1.836E-03
1.574,   1.840E-03
1.575,   1.842E-03
1.576,   1.849E-03
1.577,   1.852E-03
1.578,   1.856E-03
1.579,   1.859E-03
1.58,   1.870E-03
1.581,   1.898E-03
1.582,   1.899E-03
1.583,   1.896E-03
1.584,   1.900E-03
1.585,   1.896E-03
1.586,   1.898E-03
1.587,   1.906E-03
1.588,   1.906E-03
1.589,   1.912E-03
1.59,   1.922E-03
1.591,   1.922E-03
1.592,   1.925E-03
1.593,   1.916E-03
1.594,   1.916E-03
1.595,   1.928E-03
1.596,   1.953E-03
1.597,   1.958E-03
1.598,   1.949E-03
1.599,   1.958E-03
1.6,   1.962E-03
1.601,   1.965E-03
1.602,   1.968E-03
1.603,   1.974E-03
1.604,   1.972E-03
1.605,   1.979E-03
1.606,   1.982E-03
1.607,   1.982E-03