File: Experimental Records, Raw Data, and Supplementary Notes and Figures/batch4/final500/B4_VARIANCE_500_#2_Full(#10)-264mV.txt
Mar. 29, 2023   12:27:40
Linear Sweep Voltammetry
File: d:\current work\al_oer\electrochemical test data\batch 4\500\B4_VARIANCE_500_#2_Full(#10)-264mV.txt
Data Source:  Experiment
Instrument Model:  CHI660E
Header:
Note:

Init E (V) = 1.099

Final E (V) = 1.618

Scan Rate (V/s) = 0.010
Sample Interval (V) = 0.001
Quiet Time (sec) = 2
Sensitivity (A/V) = 0.001
Comp R (ohm) = 5.4

Results:

Channel 1:

Potential/V, Current/A
1.099,   4.819e-5
1.100,   4.800e-5
1.101,   4.562e-5
1.102,   4.330e-5
1.103,   4.131e-5
1.104,   3.955e-5
1.105,   3.800e-5
1.106,   3.668e-5
1.107,   3.544e-5
1.108,   3.425e-5
1.109,   3.323e-5
1.110,   3.227e-5
1.111,   3.147e-5
1.112,   3.069e-5
1.113,   3.000e-5
1.114,   2.937e-5
1.115,   2.876e-5
1.116,   2.825e-5
1.117,   2.777e-5
1.118,   2.725e-5
1.119,   2.687e-5
1.120,   2.660e-5
1.121,   2.613e-5
1.122,   2.582e-5
1.123,   2.551e-5
1.124,   2.528e-5
1.125,   2.501e-5
1.126,   2.475e-5
1.127,   2.456e-5
1.128,   2.432e-5
1.129,   2.415e-5
1.130,   2.401e-5
1.131,   2.379e-5
1.132,   2.365e-5
1.133,   2.356e-5
1.134,   2.335e-5
1.135,   2.325e-5
1.136,   2.314e-5
1.137,   2.302e-5
1.138,   2.299e-5
1.139,   2.286e-5
1.140,   2.277e-5
1.141,   2.276e-5
1.142,   2.265e-5
1.143,   2.262e-5
1.144,   2.257e-5
1.145,   2.254e-5
1.146,   2.250e-5
1.147,   2.244e-5
1.148,   2.241e-5
1.149,   2.241e-5
1.150,   2.236e-5
1.151,   2.236e-5
1.152,   2.234e-5
1.153,   2.230e-5
1.154,   2.235e-5
1.155,   2.231e-5
1.156,   2.235e-5
1.157,   2.235e-5
1.158,   2.240e-5
1.159,   2.239e-5
1.160,   2.238e-5
1.161,   2.237e-5
1.162,   2.243e-5
1.163,   2.239e-5
1.164,   2.247e-5
1.165,   2.254e-5
1.166,   2.248e-5
1.167,   2.258e-5
1.168,   2.258e-5
1.169,   2.260e-5
1.170,   2.270e-5
1.171,   2.275e-5
1.172,   2.273e-5
1.173,   2.283e-5
1.174,   2.281e-5
1.175,   2.289e-5
1.176,   2.293e-5
1.177,   2.297e-5
1.178,   2.305e-5
1.179,   2.303e-5
1.180,   2.316e-5
1.181,   2.323e-5
1.182,   2.321e-5
1.183,   2.335e-5
1.184,   2.341e-5
1.185,   2.342e-5
1.186,   2.353e-5
1.187,   2.357e-5
1.188,   2.361e-5
1.189,   2.372e-5
1.190,   2.376e-5
1.191,   2.384e-5
1.192,   2.389e-5
1.193,   2.394e-5
1.194,   2.408e-5
1.195,   2.410e-5
1.196,   2.418e-5
1.197,   2.429e-5
1.198,   2.430e-5
1.199,   2.443e-5
1.200,   2.446e-5
1.201,   2.451e-5
1.202,   2.469e-5
1.203,   2.471e-5
1.204,   2.481e-5
1.205,   2.495e-5
1.206,   2.497e-5
1.207,   2.506e-5
1.208,   2.511e-5
1.209,   2.524e-5
1.210,   2.533e-5
1.211,   2.534e-5
1.212,   2.548e-5
1.213,   2.557e-5
1.214,   2.562e-5
1.215,   2.576e-5
1.216,   2.583e-5
1.217,   2.590e-5
1.218,   2.603e-5
1.219,   2.607e-5
1.220,   2.620e-5
1.221,   2.632e-5
1.222,   2.639e-5
1.223,   2.655e-5
1.224,   2.661e-5
1.225,   2.670e-5
1.226,   2.682e-5
1.227,   2.685e-5
1.228,   2.702e-5
1.229,   2.718e-5
1.230,   2.717e-5
1.231,   2.729e-5
1.232,   2.745e-5
1.233,   2.750e-5
1.234,   2.767e-5
1.235,   2.781e-5
1.236,   2.785e-5
1.237,   2.799e-5
1.238,   2.805e-5
1.239,   2.818e-5
1.240,   2.832e-5
1.241,   2.842e-5
1.242,   2.857e-5
1.243,   2.860e-5
1.244,   2.877e-5
1.245,   2.892e-5
1.246,   2.896e-5
1.247,   2.913e-5
1.248,   2.929e-5
1.249,   2.939e-5
1.250,   2.954e-5
1.251,   2.962e-5
1.252,   2.973e-5
1.253,   2.991e-5
1.254,   2.999e-5
1.255,   3.018e-5
1.256,   3.029e-5
1.257,   3.042e-5
1.258,   3.058e-5
1.259,   3.066e-5
1.260,   3.084e-5
1.261,   3.103e-5
1.262,   3.107e-5
1.263,   3.124e-5
1.264,   3.138e-5
1.265,   3.151e-5
1.266,   3.170e-5
1.267,   3.188e-5
1.268,   3.199e-5
1.269,   3.219e-5
1.270,   3.232e-5
1.271,   3.249e-5
1.272,   3.264e-5
1.273,   3.281e-5
1.274,   3.299e-5
1.275,   3.309e-5
1.276,   3.332e-5
1.277,   3.347e-5
1.278,   3.359e-5
1.279,   3.382e-5
1.280,   3.401e-5
1.281,   3.417e-5
1.282,   3.438e-5
1.283,   3.453e-5
1.284,   3.473e-5
1.285,   3.495e-5
1.286,   3.519e-5
1.287,   3.536e-5
1.288,   3.555e-5
1.289,   3.569e-5
1.290,   3.594e-5
1.291,   3.607e-5
1.292,   3.633e-5
1.293,   3.656e-5
1.294,   3.669e-5
1.295,   3.695e-5
1.296,   3.717e-5
1.297,   3.738e-5
1.298,   3.759e-5
1.299,   3.779e-5
1.300,   3.797e-5
1.301,   3.821e-5
1.302,   3.844e-5
1.303,   3.867e-5
1.304,   3.893e-5
1.305,   3.917e-5
1.306,   3.947e-5
1.307,   3.970e-5
1.308,   3.999e-5
1.309,   4.026e-5
1.310,   4.051e-5
1.311,   4.082e-5
1.312,   4.109e-5
1.313,   4.135e-5
1.314,   4.169e-5
1.315,   4.197e-5
1.316,   4.230e-5
1.317,   4.263e-5
1.318,   4.289e-5
1.319,   4.325e-5
1.320,   4.359e-5
1.321,   4.385e-5
1.322,   4.426e-5
1.323,   4.456e-5
1.324,   4.504e-5
1.325,   4.541e-5
1.326,   4.574e-5
1.327,   4.618e-5
1.328,   4.654e-5
1.329,   4.691e-5
1.330,   4.737e-5
1.331,   4.783e-5
1.332,   4.827e-5
1.333,   4.873e-5
1.334,   4.912e-5
1.335,   4.961e-5
1.336,   5.011e-5
1.337,   5.066e-5
1.338,   5.120e-5
1.339,   5.167e-5
1.340,   5.226e-5
1.341,   5.290e-5
1.342,   5.343e-5
1.343,   5.410e-5
1.344,   5.470e-5
1.345,   5.530e-5
1.346,   5.599e-5
1.347,   5.663e-5
1.348,   5.738e-5
1.349,   5.812e-5
1.350,   5.885e-5
1.351,   5.968e-5
1.352,   6.054e-5
1.353,   6.138e-5
1.354,   6.223e-5
1.355,   6.307e-5
1.356,   6.413e-5
1.357,   6.512e-5
1.358,   6.603e-5
1.359,   6.713e-5
1.360,   6.812e-5
1.361,   6.926e-5
1.362,   7.046e-5
1.363,   7.161e-5
1.364,   7.280e-5
1.365,   7.412e-5
1.366,   7.542e-5
1.367,   7.681e-5
1.368,   7.819e-5
1.369,   7.963e-5
1.370,   8.116e-5
1.371,   8.257e-5
1.372,   8.419e-5
1.373,   8.586e-5
1.374,   8.745e-5
1.375,   8.928e-5
1.376,   9.105e-5
1.377,   9.281e-5
1.378,   9.474e-5
1.379,   9.665e-5
1.380,   9.871e-5
1.381,   1.008e-4
1.382,   1.030e-4
1.383,   1.052e-4
1.384,   1.075e-4
1.385,   1.099e-4
1.386,   1.124e-4
1.387,   1.149e-4
1.388,   1.176e-4
1.389,   1.203e-4
1.390,   1.230e-4
1.391,   1.260e-4
1.392,   1.290e-4
1.393,   1.320e-4
1.394,   1.351e-4
1.395,   1.383e-4
1.396,   1.416e-4
1.397,   1.449e-4
1.398,   1.483e-4
1.399,   1.518e-4
1.400,   1.554e-4
1.401,   1.591e-4
1.402,   1.628e-4
1.403,   1.665e-4
1.404,   1.704e-4
1.405,   1.742e-4
1.406,   1.781e-4
1.407,   1.821e-4
1.408,   1.863e-4
1.409,   1.904e-4
1.410,   1.947e-4
1.411,   1.989e-4
1.412,   2.034e-4
1.413,   2.080e-4
1.414,   2.128e-4
1.415,   2.177e-4
1.416,   2.228e-4
1.417,   2.280e-4
1.418,   2.336e-4
1.419,   2.393e-4
1.420,   2.453e-4
1.421,   2.516e-4
1.422,   2.581e-4
1.423,   2.652e-4
1.424,   2.725e-4
1.425,   2.803e-4
1.426,   2.885e-4
1.427,   2.971e-4
1.428,   3.063e-4
1.429,   3.162e-4
1.430,   3.264e-4
1.431,   3.373e-4
1.432,   3.485e-4
1.433,   3.604e-4
1.434,   3.730e-4
1.435,   3.861e-4
1.436,   4.001e-4
1.437,   4.146e-4
1.438,   4.297e-4
1.439,   4.455e-4
1.440,   4.620e-4
1.441,   4.792e-4
1.442,   4.969e-4
1.443,   5.151e-4
1.444,   5.340e-4
1.445,   5.535e-4
1.446,   5.736e-4
1.447,   5.942e-4
1.448,   6.152e-4
1.449,   6.368e-4
1.450,   6.587e-4
1.451,   6.808e-4
1.452,   7.032e-4
1.453,   7.256e-4
1.454,   7.482e-4
1.455,   7.706e-4
1.456,   7.928e-4
1.457,   8.149e-4
1.458,   8.369e-4
1.459,   8.589e-4
1.460,   8.812e-4
1.461,   9.038e-4
1.462,   9.265e-4
1.463,   9.497e-4
1.464,   9.730e-4
1.465,   9.967e-4
1.466,   1.021e-3
1.467,   1.047e-3
1.468,   1.073e-3
1.469,   1.100e-3
1.470,   1.127e-3
1.471,   1.154e-3
1.472,   1.182e-3
1.473,   1.212e-3
1.474,   1.242e-3
1.475,   1.273e-3
1.476,   1.303e-3
1.477,   1.335e-3
1.478,   1.367e-3
1.479,   1.400e-3
1.480,   1.433e-3
1.481,   1.466e-3
1.482,   1.501e-3
1.483,   1.535e-3
1.484,   1.570e-3
1.485,   1.602e-3
1.486,   1.639e-3
1.487,   1.676e-3
1.488,   1.709e-3
1.489,   1.742e-3
1.490,   1.776e-3
1.491,   1.813e-3
1.492,   1.852e-3
1.493,   1.896e-3
1.494,   1.941e-3
1.495,   1.976e-3
1.496,   2.015e-3
1.497,   2.053e-3
1.498,   2.093e-3
1.499,   2.134e-3
1.500,   2.178e-3
1.501,   2.223e-3
1.502,   2.266e-3
1.503,   2.306e-3
1.504,   2.350e-3
1.505,   2.397e-3
1.506,   2.440e-3
1.507,   2.481e-3
1.508,   2.523e-3
1.509,   2.562e-3
1.510,   2.609e-3
1.511,   2.661e-3
1.512,   2.710e-3
1.513,   2.761e-3
1.514,   2.814e-3
1.515,   2.862e-3
1.516,   2.909e-3
1.517,   2.959e-3
1.518,   3.008e-3
1.519,   3.060e-3
1.520,   3.115e-3
1.521,   3.165e-3
1.522,   3.217e-3
1.523,   3.264e-3
1.524,   3.305e-3
1.525,   3.357e-3
1.526,   3.438e-3
1.527,   3.502e-3
1.528,   3.561e-3
1.529,   3.603e-3
1.530,   3.637e-3
1.531,   3.667e-3
1.532,   3.727e-3
1.533,   3.784e-3
1.534,   3.823e-3
1.535,   3.873e-3
1.536,   3.956e-3
1.537,   3.997e-3
1.538,   4.022e-3
1.539,   4.056e-3
1.540,   4.116e-3
1.541,   4.181e-3
1.542,   4.202e-3
1.543,   4.228e-3
1.544,   4.249e-3
1.545,   4.290e-3
1.546,   4.350e-3
1.547,   4.375e-3
1.548,   4.399e-3
1.549,   4.446e-3
1.550,   4.495e-3
1.551,   4.523e-3
1.552,   4.603e-3
1.553,   4.709e-3
1.554,   4.782e-3
1.555,   4.788e-3
1.556,   4.816e-3
1.557,   4.816e-3
1.558,   4.841e-3
1.559,   4.836e-3
1.560,   4.859e-3
1.561,   4.899e-3
1.562,   4.922e-3
1.563,   4.911e-3
1.564,   4.920e-3
1.565,   4.960e-3
1.566,   4.997e-3
1.567,   5.036e-3
1.568,   5.039e-3
1.569,   5.067e-3
1.570,   5.124e-3
1.571,   5.165e-3
1.572,   5.171e-3
1.573,   5.195e-3
1.574,   5.213e-3
1.575,   5.240e-3
1.576,   5.277e-3
1.577,   5.312e-3
1.578,   5.308e-3
1.579,   5.340e-3
1.580,   5.398e-3
1.581,   5.409e-3
1.582,   5.464e-3
1.583,   5.531e-3
1.584,   5.532e-3
1.585,   5.527e-3
1.586,   5.550e-3
1.587,   5.543e-3
1.588,   5.558e-3
1.589,   5.590e-3
1.590,   5.619e-3
1.591,   5.672e-3
1.592,   5.712e-3
1.593,   5.709e-3
1.594,   5.694e-3
1.595,   5.752e-3
1.596,   5.785e-3
1.597,   5.812e-3
1.598,   5.799e-3
1.599,   5.844e-3
1.600,   5.909e-3
1.601,   5.906e-3
1.602,   5.938e-3
1.603,   6.002e-3
1.604,   6.002e-3
1.605,   6.006e-3
1.606,   6.062e-3
1.607,   6.046e-3
1.608,   6.074e-3
1.609,   6.121e-3
1.610,   6.126e-3
1.611,   6.150e-3
1.612,   6.260e-3
1.613,   6.325e-3
1.614,   6.354e-3
1.615,   6.458e-3
1.616,   6.449e-3
1.617,   6.435e-3
1.618,   6.448e-3