File: Experimental Records and Raw Data/batch1/final500/B1_BEST_500_#21_High_Quality-221mV.txt
Dec. 14, 2022   15:08:39
Linear Sweep Voltammetry
File: d:\current work\al_oer\electrochemical test data\batch 1\500\B1_BEST_500_#21_High_Quality-221mV.txt
Data Source:  Experiment
Instrument Model:  CHI660E
Header:
Note:

Init E (V) = 1.085

Final E (V) = 1.499

Scan Rate (V/s) = 0.010
Sample Interval (V) = 0.001
Quiet Time (sec) = 2
Sensitivity (A/V) = 0.001
Comp R (ohm) = 6.0

Results:

Channel 1:

Potential/V, Current/A
1.085,   4.523e-5
1.086,   5.042e-5
1.087,   4.885e-5
1.088,   4.684e-5
1.089,   4.515e-5
1.090,   4.375e-5
1.091,   4.225e-5
1.092,   4.103e-5
1.093,   3.991e-5
1.094,   3.882e-5
1.095,   3.804e-5
1.096,   3.740e-5
1.097,   3.682e-5
1.098,   3.609e-5
1.099,   3.556e-5
1.100,   3.507e-5
1.101,   3.450e-5
1.102,   3.402e-5
1.103,   3.378e-5
1.104,   3.329e-5
1.105,   3.310e-5
1.106,   3.283e-5
1.107,   3.237e-5
1.108,   3.224e-5
1.109,   3.187e-5
1.110,   3.163e-5
1.111,   3.151e-5
1.112,   3.123e-5
1.113,   3.109e-5
1.114,   3.099e-5
1.115,   3.085e-5
1.116,   3.071e-5
1.117,   3.048e-5
1.118,   3.052e-5
1.119,   3.051e-5
1.120,   3.018e-5
1.121,   3.021e-5
1.122,   3.011e-5
1.123,   3.000e-5
1.124,   3.003e-5
1.125,   2.998e-5
1.126,   3.005e-5
1.127,   2.997e-5
1.128,   2.981e-5
1.129,   3.000e-5
1.130,   2.990e-5
1.131,   2.977e-5
1.132,   2.982e-5
1.133,   2.975e-5
1.134,   2.984e-5
1.135,   2.996e-5
1.136,   2.976e-5
1.137,   2.974e-5
1.138,   2.986e-5
1.139,   2.990e-5
1.140,   2.989e-5
1.141,   2.987e-5
1.142,   3.000e-5
1.143,   3.016e-5
1.144,   3.012e-5
1.145,   3.002e-5
1.146,   3.030e-5
1.147,   3.001e-5
1.148,   3.020e-5
1.149,   3.018e-5
1.150,   3.018e-5
1.151,   3.028e-5
1.152,   3.050e-5
1.153,   3.055e-5
1.154,   3.052e-5
1.155,   3.054e-5
1.156,   3.073e-5
1.157,   3.074e-5
1.158,   3.080e-5
1.159,   3.091e-5
1.160,   3.086e-5
1.161,   3.103e-5
1.162,   3.110e-5
1.163,   3.111e-5
1.164,   3.118e-5
1.165,   3.112e-5
1.166,   3.123e-5
1.167,   3.148e-5
1.168,   3.133e-5
1.169,   3.158e-5
1.170,   3.172e-5
1.171,   3.165e-5
1.172,   3.186e-5
1.173,   3.184e-5
1.174,   3.188e-5
1.175,   3.197e-5
1.176,   3.193e-5
1.177,   3.208e-5
1.178,   3.222e-5
1.179,   3.227e-5
1.180,   3.240e-5
1.181,   3.249e-5
1.182,   3.280e-5
1.183,   3.274e-5
1.184,   3.267e-5
1.185,   3.273e-5
1.186,   3.285e-5
1.187,   3.289e-5
1.188,   3.310e-5
1.189,   3.310e-5
1.190,   3.310e-5
1.191,   3.327e-5
1.192,   3.321e-5
1.193,   3.348e-5
1.194,   3.353e-5
1.195,   3.373e-5
1.196,   3.383e-5
1.197,   3.370e-5
1.198,   3.370e-5
1.199,   3.392e-5
1.200,   3.391e-5
1.201,   3.411e-5
1.202,   3.406e-5
1.203,   3.400e-5
1.204,   3.413e-5
1.205,   3.411e-5
1.206,   3.431e-5
1.207,   3.447e-5
1.208,   3.438e-5
1.209,   3.447e-5
1.210,   3.454e-5
1.211,   3.459e-5
1.212,   3.477e-5
1.213,   3.464e-5
1.214,   3.477e-5
1.215,   3.485e-5
1.216,   3.486e-5
1.217,   3.499e-5
1.218,   3.517e-5
1.219,   3.494e-5
1.220,   3.515e-5
1.221,   3.523e-5
1.222,   3.506e-5
1.223,   3.508e-5
1.224,   3.501e-5
1.225,   3.513e-5
1.226,   3.510e-5
1.227,   3.519e-5
1.228,   3.544e-5
1.229,   3.518e-5
1.230,   3.537e-5
1.231,   3.545e-5
1.232,   3.532e-5
1.233,   3.544e-5
1.234,   3.546e-5
1.235,   3.537e-5
1.236,   3.569e-5
1.237,   3.539e-5
1.238,   3.545e-5
1.239,   3.545e-5
1.240,   3.555e-5
1.241,   3.561e-5
1.242,   3.546e-5
1.243,   3.533e-5
1.244,   3.549e-5
1.245,   3.544e-5
1.246,   3.560e-5
1.247,   3.565e-5
1.248,   3.547e-5
1.249,   3.557e-5
1.250,   3.554e-5
1.251,   3.547e-5
1.252,   3.557e-5
1.253,   3.545e-5
1.254,   3.537e-5
1.255,   3.548e-5
1.256,   3.550e-5
1.257,   3.564e-5
1.258,   3.547e-5
1.259,   3.548e-5
1.260,   3.557e-5
1.261,   3.541e-5
1.262,   3.555e-5
1.263,   3.560e-5
1.264,   3.533e-5
1.265,   3.557e-5
1.266,   3.547e-5
1.267,   3.538e-5
1.268,   3.564e-5
1.269,   3.548e-5
1.270,   3.555e-5
1.271,   3.560e-5
1.272,   3.559e-5
1.273,   3.565e-5
1.274,   3.549e-5
1.275,   3.545e-5
1.276,   3.562e-5
1.277,   3.544e-5
1.278,   3.543e-5
1.279,   3.548e-5
1.280,   3.533e-5
1.281,   3.548e-5
1.282,   3.543e-5
1.283,   3.542e-5
1.284,   3.553e-5
1.285,   3.547e-5
1.286,   3.542e-5
1.287,   3.550e-5
1.288,   3.543e-5
1.289,   3.553e-5
1.290,   3.557e-5
1.291,   3.547e-5
1.292,   3.554e-5
1.293,   3.537e-5
1.294,   3.549e-5
1.295,   3.563e-5
1.296,   3.551e-5
1.297,   3.570e-5
1.298,   3.575e-5
1.299,   3.565e-5
1.300,   3.570e-5
1.301,   3.562e-5
1.302,   3.571e-5
1.303,   3.581e-5
1.304,   3.575e-5
1.305,   3.590e-5
1.306,   3.587e-5
1.307,   3.594e-5
1.308,   3.605e-5
1.309,   3.597e-5
1.310,   3.612e-5
1.311,   3.623e-5
1.312,   3.612e-5
1.313,   3.634e-5
1.314,   3.639e-5
1.315,   3.655e-5
1.316,   3.666e-5
1.317,   3.651e-5
1.318,   3.649e-5
1.319,   3.655e-5
1.320,   3.656e-5
1.321,   3.662e-5
1.322,   3.665e-5
1.323,   3.677e-5
1.324,   3.700e-5
1.325,   3.686e-5
1.326,   3.691e-5
1.327,   3.699e-5
1.328,   3.699e-5
1.329,   3.714e-5
1.330,   3.732e-5
1.331,   3.728e-5
1.332,   3.751e-5
1.333,   3.750e-5
1.334,   3.746e-5
1.335,   3.769e-5
1.336,   3.776e-5
1.337,   3.798e-5
1.338,   3.798e-5
1.339,   3.821e-5
1.340,   3.854e-5
1.341,   3.842e-5
1.342,   3.864e-5
1.343,   3.891e-5
1.344,   3.901e-5
1.345,   3.936e-5
1.346,   3.961e-5
1.347,   3.975e-5
1.348,   4.000e-5
1.349,   4.018e-5
1.350,   4.038e-5
1.351,   4.057e-5
1.352,   4.068e-5
1.353,   4.109e-5
1.354,   4.132e-5
1.355,   4.162e-5
1.356,   4.205e-5
1.357,   4.231e-5
1.358,   4.262e-5
1.359,   4.321e-5
1.360,   4.370e-5
1.361,   4.424e-5
1.362,   4.468e-5
1.363,   4.512e-5
1.364,   4.576e-5
1.365,   4.627e-5
1.366,   4.693e-5
1.367,   4.766e-5
1.368,   4.836e-5
1.369,   4.928e-5
1.370,   5.018e-5
1.371,   5.099e-5
1.372,   5.213e-5
1.373,   5.311e-5
1.374,   5.446e-5
1.375,   5.585e-5
1.376,   5.757e-5
1.377,   5.902e-5
1.378,   6.065e-5
1.379,   6.236e-5
1.380,   6.396e-5
1.381,   6.558e-5
1.382,   6.751e-5
1.383,   6.973e-5
1.384,   7.201e-5
1.385,   7.480e-5
1.386,   7.768e-5
1.387,   8.074e-5
1.388,   8.403e-5
1.389,   8.729e-5
1.390,   9.110e-5
1.391,   9.504e-5
1.392,   9.909e-5
1.393,   1.037e-4
1.394,   1.087e-4
1.395,   1.138e-4
1.396,   1.193e-4
1.397,   1.250e-4
1.398,   1.313e-4
1.399,   1.378e-4
1.400,   1.450e-4
1.401,   1.525e-4
1.402,   1.605e-4
1.403,   1.688e-4
1.404,   1.780e-4
1.405,   1.869e-4
1.406,   1.968e-4
1.407,   2.075e-4
1.408,   2.184e-4
1.409,   2.305e-4
1.410,   2.429e-4
1.411,   2.560e-4
1.412,   2.703e-4
1.413,   2.851e-4
1.414,   3.004e-4
1.415,   3.171e-4
1.416,   3.348e-4
1.417,   3.526e-4
1.418,   3.716e-4
1.419,   3.919e-4
1.420,   4.129e-4
1.421,   4.350e-4
1.422,   4.595e-4
1.423,   4.847e-4
1.424,   5.102e-4
1.425,   5.380e-4
1.426,   5.660e-4
1.427,   5.959e-4
1.428,   6.261e-4
1.429,   6.593e-4
1.430,   6.974e-4
1.431,   7.291e-4
1.432,   7.671e-4
1.433,   8.098e-4
1.434,   8.501e-4
1.435,   8.946e-4
1.436,   9.358e-4
1.437,   9.829e-4
1.438,   1.032e-3
1.439,   1.083e-3
1.440,   1.137e-3
1.441,   1.191e-3
1.442,   1.250e-3
1.443,   1.310e-3
1.444,   1.373e-3
1.445,   1.442e-3
1.446,   1.508e-3
1.447,   1.580e-3
1.448,   1.655e-3
1.449,   1.739e-3
1.450,   1.816e-3
1.451,   1.899e-3
1.452,   1.985e-3
1.453,   2.080e-3
1.454,   2.174e-3
1.455,   2.276e-3
1.456,   2.381e-3
1.457,   2.489e-3
1.458,   2.607e-3
1.459,   2.726e-3
1.460,   2.848e-3
1.461,   2.979e-3
1.462,   3.106e-3
1.463,   3.247e-3
1.464,   3.391e-3
1.465,   3.538e-3
1.466,   3.690e-3
1.467,   3.846e-3
1.468,   4.010e-3
1.469,   4.175e-3
1.470,   4.345e-3
1.471,   4.541e-3
1.472,   4.737e-3
1.473,   4.923e-3
1.474,   5.127e-3
1.475,   5.332e-3
1.476,   5.553e-3
1.477,   5.762e-3
1.478,   5.978e-3
1.479,   6.197e-3
1.480,   6.427e-3
1.481,   6.665e-3
1.482,   6.939e-3
1.483,   7.196e-3
1.484,   7.448e-3
1.485,   7.718e-3
1.486,   7.966e-3
1.487,   8.249e-3
1.488,   8.576e-3
1.489,   8.955e-3
1.490,   9.212e-3
1.491,   9.483e-3
1.492,   9.828e-3
1.493,   1.005e-2
1.494,   1.006e-2
1.495,   1.006e-2
1.496,   1.006e-2
1.497,   1.006e-2
1.498,   1.006e-2
1.499,   1.006e-2