File: Experimental Records and Raw Data/batch1/final500/B1_BEST_500_#1_High_Quality-237mV.txt
Dec. 14, 2022   14:20:27
Linear Sweep Voltammetry
File: d:\current work\al_oer\electrochemical test data\batch 1\500\B1_BEST_500_#1_High_Quality-237mV.txt
Data Source:  Experiment
Instrument Model:  CHI660E
Header:
Note:

Init E (V) = 1.088

Final E (V) = 1.550

Scan Rate (V/s) = 0.010
Sample Interval (V) = 0.001
Quiet Time (sec) = 2
Sensitivity (A/V) = 0.001
Comp R (ohm) = 6.1

Results:

Channel 1:

Potential/V, Current/A
1.088,   9.054e-5
1.089,   9.209e-5
1.090,   8.772e-5
1.091,   8.322e-5
1.092,   7.934e-5
1.093,   7.587e-5
1.094,   7.276e-5
1.095,   7.016e-5
1.096,   6.759e-5
1.097,   6.551e-5
1.098,   6.353e-5
1.099,   6.165e-5
1.100,   6.014e-5
1.101,   5.862e-5
1.102,   5.732e-5
1.103,   5.617e-5
1.104,   5.497e-5
1.105,   5.399e-5
1.106,   5.313e-5
1.107,   5.220e-5
1.108,   5.157e-5
1.109,   5.096e-5
1.110,   5.013e-5
1.111,   4.958e-5
1.112,   4.887e-5
1.113,   4.838e-5
1.114,   4.800e-5
1.115,   4.747e-5
1.116,   4.707e-5
1.117,   4.666e-5
1.118,   4.623e-5
1.119,   4.601e-5
1.120,   4.556e-5
1.121,   4.534e-5
1.122,   4.513e-5
1.123,   4.478e-5
1.124,   4.466e-5
1.125,   4.445e-5
1.126,   4.421e-5
1.127,   4.407e-5
1.128,   4.388e-5
1.129,   4.377e-5
1.130,   4.359e-5
1.131,   4.348e-5
1.132,   4.348e-5
1.133,   4.340e-5
1.134,   4.335e-5
1.135,   4.335e-5
1.136,   4.313e-5
1.137,   4.316e-5
1.138,   4.311e-5
1.139,   4.295e-5
1.140,   4.305e-5
1.141,   4.298e-5
1.142,   4.291e-5
1.143,   4.305e-5
1.144,   4.298e-5
1.145,   4.304e-5
1.146,   4.304e-5
1.147,   4.300e-5
1.148,   4.298e-5
1.149,   4.296e-5
1.150,   4.290e-5
1.151,   4.303e-5
1.152,   4.297e-5
1.153,   4.311e-5
1.154,   4.319e-5
1.155,   4.310e-5
1.156,   4.324e-5
1.157,   4.328e-5
1.158,   4.328e-5
1.159,   4.343e-5
1.160,   4.345e-5
1.161,   4.345e-5
1.162,   4.352e-5
1.163,   4.354e-5
1.164,   4.373e-5
1.165,   4.374e-5
1.166,   4.385e-5
1.167,   4.403e-5
1.168,   4.396e-5
1.169,   4.407e-5
1.170,   4.417e-5
1.171,   4.419e-5
1.172,   4.441e-5
1.173,   4.438e-5
1.174,   4.434e-5
1.175,   4.451e-5
1.176,   4.451e-5
1.177,   4.466e-5
1.178,   4.476e-5
1.179,   4.477e-5
1.180,   4.490e-5
1.181,   4.488e-5
1.182,   4.491e-5
1.183,   4.512e-5
1.184,   4.502e-5
1.185,   4.526e-5
1.186,   4.542e-5
1.187,   4.543e-5
1.188,   4.552e-5
1.189,   4.553e-5
1.190,   4.553e-5
1.191,   4.571e-5
1.192,   4.570e-5
1.193,   4.588e-5
1.194,   4.596e-5
1.195,   4.588e-5
1.196,   4.598e-5
1.197,   4.602e-5
1.198,   4.611e-5
1.199,   4.625e-5
1.200,   4.625e-5
1.201,   4.629e-5
1.202,   4.640e-5
1.203,   4.631e-5
1.204,   4.648e-5
1.205,   4.656e-5
1.206,   4.651e-5
1.207,   4.666e-5
1.208,   4.661e-5
1.209,   4.667e-5
1.210,   4.676e-5
1.211,   4.672e-5
1.212,   4.675e-5
1.213,   4.679e-5
1.214,   4.680e-5
1.215,   4.694e-5
1.216,   4.689e-5
1.217,   4.703e-5
1.218,   4.706e-5
1.219,   4.696e-5
1.220,   4.707e-5
1.221,   4.706e-5
1.222,   4.702e-5
1.223,   4.726e-5
1.224,   4.725e-5
1.225,   4.727e-5
1.226,   4.736e-5
1.227,   4.727e-5
1.228,   4.734e-5
1.229,   4.728e-5
1.230,   4.738e-5
1.231,   4.750e-5
1.232,   4.735e-5
1.233,   4.744e-5
1.234,   4.748e-5
1.235,   4.729e-5
1.236,   4.746e-5
1.237,   4.746e-5
1.238,   4.740e-5
1.239,   4.750e-5
1.240,   4.741e-5
1.241,   4.745e-5
1.242,   4.749e-5
1.243,   4.748e-5
1.244,   4.753e-5
1.245,   4.748e-5
1.246,   4.749e-5
1.247,   4.757e-5
1.248,   4.746e-5
1.249,   4.767e-5
1.250,   4.761e-5
1.251,   4.751e-5
1.252,   4.759e-5
1.253,   4.765e-5
1.254,   4.755e-5
1.255,   4.771e-5
1.256,   4.761e-5
1.257,   4.764e-5
1.258,   4.774e-5
1.259,   4.771e-5
1.260,   4.772e-5
1.261,   4.769e-5
1.262,   4.782e-5
1.263,   4.792e-5
1.264,   4.773e-5
1.265,   4.790e-5
1.266,   4.793e-5
1.267,   4.782e-5
1.268,   4.798e-5
1.269,   4.814e-5
1.270,   4.801e-5
1.271,   4.805e-5
1.272,   4.795e-5
1.273,   4.806e-5
1.274,   4.819e-5
1.275,   4.824e-5
1.276,   4.830e-5
1.277,   4.811e-5
1.278,   4.820e-5
1.279,   4.838e-5
1.280,   4.823e-5
1.281,   4.831e-5
1.282,   4.847e-5
1.283,   4.833e-5
1.284,   4.856e-5
1.285,   4.865e-5
1.286,   4.871e-5
1.287,   4.885e-5
1.288,   4.882e-5
1.289,   4.887e-5
1.290,   4.901e-5
1.291,   4.895e-5
1.292,   4.918e-5
1.293,   4.918e-5
1.294,   4.925e-5
1.295,   4.958e-5
1.296,   4.951e-5
1.297,   4.971e-5
1.298,   4.980e-5
1.299,   4.965e-5
1.300,   4.996e-5
1.301,   5.009e-5
1.302,   5.011e-5
1.303,   5.035e-5
1.304,   5.025e-5
1.305,   5.031e-5
1.306,   5.052e-5
1.307,   5.051e-5
1.308,   5.069e-5
1.309,   5.076e-5
1.310,   5.095e-5
1.311,   5.121e-5
1.312,   5.113e-5
1.313,   5.156e-5
1.314,   5.178e-5
1.315,   5.161e-5
1.316,   5.195e-5
1.317,   5.219e-5
1.318,   5.229e-5
1.319,   5.250e-5
1.320,   5.261e-5
1.321,   5.268e-5
1.322,   5.308e-5
1.323,   5.303e-5
1.324,   5.330e-5
1.325,   5.350e-5
1.326,   5.381e-5
1.327,   5.408e-5
1.328,   5.403e-5
1.329,   5.434e-5
1.330,   5.480e-5
1.331,   5.483e-5
1.332,   5.520e-5
1.333,   5.545e-5
1.334,   5.557e-5
1.335,   5.607e-5
1.336,   5.626e-5
1.337,   5.652e-5
1.338,   5.682e-5
1.339,   5.708e-5
1.340,   5.740e-5
1.341,   5.772e-5
1.342,   5.805e-5
1.343,   5.851e-5
1.344,   5.866e-5
1.345,   5.913e-5
1.346,   5.963e-5
1.347,   5.973e-5
1.348,   6.032e-5
1.349,   6.071e-5
1.350,   6.100e-5
1.351,   6.177e-5
1.352,   6.211e-5
1.353,   6.235e-5
1.354,   6.296e-5
1.355,   6.332e-5
1.356,   6.394e-5
1.357,   6.444e-5
1.358,   6.493e-5
1.359,   6.555e-5
1.360,   6.572e-5
1.361,   6.653e-5
1.362,   6.718e-5
1.363,   6.773e-5
1.364,   6.827e-5
1.365,   6.891e-5
1.366,   6.926e-5
1.367,   7.000e-5
1.368,   7.045e-5
1.369,   7.119e-5
1.370,   7.211e-5
1.371,   7.265e-5
1.372,   7.342e-5
1.373,   7.403e-5
1.374,   7.482e-5
1.375,   7.604e-5
1.376,   7.650e-5
1.377,   7.751e-5
1.378,   7.866e-5
1.379,   7.931e-5
1.380,   8.041e-5
1.381,   8.141e-5
1.382,   8.253e-5
1.383,   8.380e-5
1.384,   8.478e-5
1.385,   8.604e-5
1.386,   8.746e-5
1.387,   8.863e-5
1.388,   9.006e-5
1.389,   9.170e-5
1.390,   9.349e-5
1.391,   9.552e-5
1.392,   9.707e-5
1.393,   9.923e-5
1.394,   1.014e-4
1.395,   1.036e-4
1.396,   1.062e-4
1.397,   1.090e-4
1.398,   1.118e-4
1.399,   1.151e-4
1.400,   1.182e-4
1.401,   1.218e-4
1.402,   1.256e-4
1.403,   1.294e-4
1.404,   1.338e-4
1.405,   1.383e-4
1.406,   1.432e-4
1.407,   1.489e-4
1.408,   1.540e-4
1.409,   1.602e-4
1.410,   1.666e-4
1.411,   1.728e-4
1.412,   1.803e-4
1.413,   1.877e-4
1.414,   1.955e-4
1.415,   2.042e-4
1.416,   2.131e-4
1.417,   2.223e-4
1.418,   2.318e-4
1.419,   2.431e-4
1.420,   2.543e-4
1.421,   2.662e-4
1.422,   2.785e-4
1.423,   2.914e-4
1.424,   3.049e-4
1.425,   3.201e-4
1.426,   3.351e-4
1.427,   3.508e-4
1.428,   3.677e-4
1.429,   3.858e-4
1.430,   4.043e-4
1.431,   4.236e-4
1.432,   4.440e-4
1.433,   4.661e-4
1.434,   4.877e-4
1.435,   5.104e-4
1.436,   5.357e-4
1.437,   5.608e-4
1.438,   5.877e-4
1.439,   6.153e-4
1.440,   6.431e-4
1.441,   6.732e-4
1.442,   7.042e-4
1.443,   7.371e-4
1.444,   7.709e-4
1.445,   8.057e-4
1.446,   8.412e-4
1.447,   8.762e-4
1.448,   9.171e-4
1.449,   9.583e-4
1.450,   1.001e-3
1.451,   1.046e-3
1.452,   1.091e-3
1.453,   1.143e-3
1.454,   1.187e-3
1.455,   1.238e-3
1.456,   1.290e-3
1.457,   1.346e-3
1.458,   1.403e-3
1.459,   1.457e-3
1.460,   1.510e-3
1.461,   1.574e-3
1.462,   1.622e-3
1.463,   1.685e-3
1.464,   1.732e-3
1.465,   1.793e-3
1.466,   1.856e-3
1.467,   1.930e-3
1.468,   1.989e-3
1.469,   2.078e-3
1.470,   2.149e-3
1.471,   2.231e-3
1.472,   2.302e-3
1.473,   2.393e-3
1.474,   2.464e-3
1.475,   2.556e-3
1.476,   2.632e-3
1.477,   2.720e-3
1.478,   2.790e-3
1.479,   2.886e-3
1.480,   2.963e-3
1.481,   3.047e-3
1.482,   3.127e-3
1.483,   3.234e-3
1.484,   3.321e-3
1.485,   3.406e-3
1.486,   3.511e-3
1.487,   3.600e-3
1.488,   3.708e-3
1.489,   3.789e-3
1.490,   3.896e-3
1.491,   3.997e-3
1.492,   4.098e-3
1.493,   4.205e-3
1.494,   4.288e-3
1.495,   4.379e-3
1.496,   4.476e-3
1.497,   4.591e-3
1.498,   4.696e-3
1.499,   4.787e-3
1.500,   4.917e-3
1.501,   5.010e-3
1.502,   5.147e-3
1.503,   5.249e-3
1.504,   5.372e-3
1.505,   5.487e-3
1.506,   5.606e-3
1.507,   5.739e-3
1.508,   5.892e-3
1.509,   5.998e-3
1.510,   6.153e-3
1.511,   6.303e-3
1.512,   6.376e-3
1.513,   6.490e-3
1.514,   6.569e-3
1.515,   6.697e-3
1.516,   6.810e-3
1.517,   6.977e-3
1.518,   7.026e-3
1.519,   7.260e-3
1.520,   7.300e-3
1.521,   7.543e-3
1.522,   7.698e-3
1.523,   7.793e-3
1.524,   7.980e-3
1.525,   8.078e-3
1.526,   8.283e-3
1.527,   8.330e-3
1.528,   8.508e-3
1.529,   8.613e-3
1.530,   8.826e-3
1.531,   8.988e-3
1.532,   9.321e-3
1.533,   9.301e-3
1.534,   9.475e-3
1.535,   9.801e-3
1.536,   1.005e-2
1.537,   1.006e-2
1.538,   1.006e-2
1.539,   1.006e-2
1.540,   1.006e-2
1.541,   1.006e-2
1.542,   1.006e-2
1.543,   1.006e-2
1.544,   1.006e-2
1.545,   1.006e-2
1.546,   1.006e-2
1.547,   1.006e-2
1.548,   1.006e-2
1.549,   1.006e-2
1.550,   1.006e-2