File: Experimental Records and Raw Data/batch1/final500/B1_BEST_500_#3_Full-208mV.txt
Dec. 14, 2022   14:44:03
Linear Sweep Voltammetry
File: d:\current work\al_oer\electrochemical test data\batch 1\500\B1_BEST_500_#3_Full-208mV.txt
Data Source:  Experiment
Instrument Model:  CHI660E
Header:
Note:

Init E (V) = 1.091

Final E (V) = 1.520

Scan Rate (V/s) = 0.010
Sample Interval (V) = 0.001
Quiet Time (sec) = 2
Sensitivity (A/V) = 0.001
Comp R (ohm) = 6.4

Results:

Channel 1:

Potential/V, Current/A
1.091,   3.224e-4
1.092,   2.984e-4
1.093,   2.725e-4
1.094,   2.493e-4
1.095,   2.294e-4
1.096,   2.127e-4
1.097,   1.981e-4
1.098,   1.850e-4
1.099,   1.736e-4
1.100,   1.635e-4
1.101,   1.543e-4
1.102,   1.464e-4
1.103,   1.397e-4
1.104,   1.334e-4
1.105,   1.279e-4
1.106,   1.232e-4
1.107,   1.188e-4
1.108,   1.148e-4
1.109,   1.112e-4
1.110,   1.078e-4
1.111,   1.050e-4
1.112,   1.025e-4
1.113,   9.989e-5
1.114,   9.755e-5
1.115,   9.524e-5
1.116,   9.329e-5
1.117,   9.170e-5
1.118,   8.992e-5
1.119,   8.840e-5
1.120,   8.693e-5
1.121,   8.557e-5
1.122,   8.446e-5
1.123,   8.327e-5
1.124,   8.242e-5
1.125,   8.153e-5
1.126,   8.058e-5
1.127,   7.980e-5
1.128,   7.902e-5
1.129,   7.826e-5
1.130,   7.756e-5
1.131,   7.688e-5
1.132,   7.644e-5
1.133,   7.591e-5
1.134,   7.547e-5
1.135,   7.502e-5
1.136,   7.461e-5
1.137,   7.426e-5
1.138,   7.398e-5
1.139,   7.351e-5
1.140,   7.333e-5
1.141,   7.314e-5
1.142,   7.279e-5
1.143,   7.300e-5
1.144,   7.279e-5
1.145,   7.243e-5
1.146,   7.225e-5
1.147,   7.198e-5
1.148,   7.192e-5
1.149,   7.186e-5
1.150,   7.189e-5
1.151,   7.194e-5
1.152,   7.177e-5
1.153,   7.166e-5
1.154,   7.178e-5
1.155,   7.160e-5
1.156,   7.173e-5
1.157,   7.187e-5
1.158,   7.171e-5
1.159,   7.189e-5
1.160,   7.197e-5
1.161,   7.197e-5
1.162,   7.214e-5
1.163,   7.224e-5
1.164,   7.231e-5
1.165,   7.238e-5
1.166,   7.251e-5
1.167,   7.269e-5
1.168,   7.270e-5
1.169,   7.288e-5
1.170,   7.310e-5
1.171,   7.309e-5
1.172,   7.330e-5
1.173,   7.341e-5
1.174,   7.350e-5
1.175,   7.373e-5
1.176,   7.392e-5
1.177,   7.396e-5
1.178,   7.423e-5
1.179,   7.429e-5
1.180,   7.446e-5
1.181,   7.467e-5
1.182,   7.477e-5
1.183,   7.508e-5
1.184,   7.519e-5
1.185,   7.529e-5
1.186,   7.556e-5
1.187,   7.549e-5
1.188,   7.578e-5
1.189,   7.603e-5
1.190,   7.606e-5
1.191,   7.643e-5
1.192,   7.647e-5
1.193,   7.653e-5
1.194,   7.680e-5
1.195,   7.689e-5
1.196,   7.706e-5
1.197,   7.735e-5
1.198,   7.731e-5
1.199,   7.753e-5
1.200,   7.751e-5
1.201,   7.780e-5
1.202,   7.794e-5
1.203,   7.781e-5
1.204,   7.805e-5
1.205,   7.821e-5
1.206,   7.818e-5
1.207,   7.854e-5
1.208,   7.855e-5
1.209,   7.853e-5
1.210,   7.876e-5
1.211,   7.872e-5
1.212,   7.889e-5
1.213,   7.902e-5
1.214,   7.894e-5
1.215,   7.918e-5
1.216,   7.914e-5
1.217,   7.918e-5
1.218,   7.945e-5
1.219,   7.920e-5
1.220,   7.936e-5
1.221,   7.954e-5
1.222,   7.935e-5
1.223,   7.957e-5
1.224,   7.961e-5
1.225,   7.952e-5
1.226,   7.971e-5
1.227,   7.976e-5
1.228,   7.976e-5
1.229,   7.983e-5
1.230,   7.973e-5
1.231,   7.988e-5
1.232,   7.977e-5
1.233,   7.989e-5
1.234,   8.005e-5
1.235,   7.983e-5
1.236,   8.008e-5
1.237,   8.015e-5
1.238,   7.996e-5
1.239,   8.018e-5
1.240,   8.017e-5
1.241,   8.007e-5
1.242,   8.030e-5
1.243,   8.007e-5
1.244,   8.010e-5
1.245,   8.026e-5
1.246,   8.017e-5
1.247,   8.020e-5
1.248,   8.014e-5
1.249,   8.026e-5
1.250,   8.034e-5
1.251,   8.017e-5
1.252,   8.026e-5
1.253,   8.034e-5
1.254,   8.013e-5
1.255,   8.029e-5
1.256,   8.028e-5
1.257,   8.022e-5
1.258,   8.038e-5
1.259,   8.021e-5
1.260,   8.022e-5
1.261,   8.035e-5
1.262,   8.024e-5
1.263,   8.036e-5
1.264,   8.029e-5
1.265,   8.043e-5
1.266,   8.054e-5
1.267,   8.035e-5
1.268,   8.051e-5
1.269,   8.050e-5
1.270,   8.027e-5
1.271,   8.054e-5
1.272,   8.051e-5
1.273,   8.044e-5
1.274,   8.060e-5
1.275,   8.042e-5
1.276,   8.048e-5
1.277,   8.076e-5
1.278,   8.077e-5
1.279,   8.082e-5
1.280,   8.074e-5
1.281,   8.075e-5
1.282,   8.090e-5
1.283,   8.080e-5
1.284,   8.105e-5
1.285,   8.107e-5
1.286,   8.111e-5
1.287,   8.116e-5
1.288,   8.122e-5
1.289,   8.132e-5
1.290,   8.149e-5
1.291,   8.162e-5
1.292,   8.159e-5
1.293,   8.180e-5
1.294,   8.175e-5
1.295,   8.192e-5
1.296,   8.210e-5
1.297,   8.208e-5
1.298,   8.237e-5
1.299,   8.241e-5
1.300,   8.260e-5
1.301,   8.259e-5
1.302,   8.265e-5
1.303,   8.308e-5
1.304,   8.321e-5
1.305,   8.329e-5
1.306,   8.358e-5
1.307,   8.357e-5
1.308,   8.387e-5
1.309,   8.406e-5
1.310,   8.422e-5
1.311,   8.435e-5
1.312,   8.464e-5
1.313,   8.478e-5
1.314,   8.514e-5
1.315,   8.511e-5
1.316,   8.580e-5
1.317,   8.604e-5
1.318,   8.588e-5
1.319,   8.639e-5
1.320,   8.630e-5
1.321,   8.676e-5
1.322,   8.724e-5
1.323,   8.727e-5
1.324,   8.772e-5
1.325,   8.796e-5
1.326,   8.820e-5
1.327,   8.865e-5
1.328,   8.872e-5
1.329,   8.959e-5
1.330,   8.978e-5
1.331,   8.990e-5
1.332,   9.041e-5
1.333,   9.110e-5
1.334,   9.122e-5
1.335,   9.179e-5
1.336,   9.239e-5
1.337,   9.257e-5
1.338,   9.344e-5
1.339,   9.359e-5
1.340,   9.398e-5
1.341,   9.468e-5
1.342,   9.539e-5
1.343,   9.617e-5
1.344,   9.647e-5
1.345,   9.710e-5
1.346,   9.826e-5
1.347,   9.846e-5
1.348,   9.954e-5
1.349,   1.004e-4
1.350,   1.009e-4
1.351,   1.017e-4
1.352,   1.029e-4
1.353,   1.039e-4
1.354,   1.045e-4
1.355,   1.064e-4
1.356,   1.071e-4
1.357,   1.081e-4
1.358,   1.092e-4
1.359,   1.117e-4
1.360,   1.115e-4
1.361,   1.143e-4
1.362,   1.167e-4
1.363,   1.165e-4
1.364,   1.184e-4
1.365,   1.212e-4
1.366,   1.237e-4
1.367,   1.272e-4
1.368,   1.292e-4
1.369,   1.314e-4
1.370,   1.348e-4
1.371,   1.358e-4
1.372,   1.392e-4
1.373,   1.443e-4
1.374,   1.483e-4
1.375,   1.524e-4
1.376,   1.564e-4
1.377,   1.597e-4
1.378,   1.633e-4
1.379,   1.686e-4
1.380,   1.750e-4
1.381,   1.806e-4
1.382,   1.844e-4
1.383,   1.904e-4
1.384,   1.983e-4
1.385,   2.062e-4
1.386,   2.125e-4
1.387,   2.194e-4
1.388,   2.278e-4
1.389,   2.362e-4
1.390,   2.448e-4
1.391,   2.548e-4
1.392,   2.610e-4
1.393,   2.680e-4
1.394,   2.791e-4
1.395,   2.877e-4
1.396,   2.974e-4
1.397,   3.095e-4
1.398,   3.205e-4
1.399,   3.336e-4
1.400,   3.462e-4
1.401,   3.586e-4
1.402,   3.740e-4
1.403,   3.903e-4
1.404,   4.063e-4
1.405,   4.230e-4
1.406,   4.409e-4
1.407,   4.613e-4
1.408,   4.816e-4
1.409,   5.027e-4
1.410,   5.260e-4
1.411,   5.532e-4
1.412,   5.789e-4
1.413,   6.043e-4
1.414,   6.348e-4
1.415,   6.641e-4
1.416,   6.954e-4
1.417,   7.275e-4
1.418,   7.637e-4
1.419,   8.012e-4
1.420,   8.390e-4
1.421,   8.776e-4
1.422,   9.163e-4
1.423,   9.605e-4
1.424,   1.004e-3
1.425,   1.050e-3
1.426,   1.098e-3
1.427,   1.148e-3
1.428,   1.201e-3
1.429,   1.253e-3
1.430,   1.307e-3
1.431,   1.366e-3
1.432,   1.436e-3
1.433,   1.503e-3
1.434,   1.569e-3
1.435,   1.638e-3
1.436,   1.703e-3
1.437,   1.776e-3
1.438,   1.849e-3
1.439,   1.922e-3
1.440,   2.008e-3
1.441,   2.097e-3
1.442,   2.188e-3
1.443,   2.271e-3
1.444,   2.357e-3
1.445,   2.448e-3
1.446,   2.551e-3
1.447,   2.645e-3
1.448,   2.741e-3
1.449,   2.838e-3
1.450,   2.934e-3
1.451,   3.043e-3
1.452,   3.160e-3
1.453,   3.267e-3
1.454,   3.383e-3
1.455,   3.498e-3
1.456,   3.649e-3
1.457,   3.766e-3
1.458,   3.873e-3
1.459,   3.985e-3
1.460,   4.107e-3
1.461,   4.208e-3
1.462,   4.339e-3
1.463,   4.471e-3
1.464,   4.599e-3
1.465,   4.735e-3
1.466,   4.910e-3
1.467,   5.050e-3
1.468,   5.128e-3
1.469,   5.242e-3
1.470,   5.334e-3
1.471,   5.432e-3
1.472,   5.551e-3
1.473,   5.686e-3
1.474,   5.785e-3
1.475,   5.992e-3
1.476,   6.172e-3
1.477,   6.306e-3
1.478,   6.455e-3
1.479,   6.512e-3
1.480,   6.643e-3
1.481,   6.744e-3
1.482,   6.849e-3
1.483,   6.913e-3
1.484,   6.978e-3
1.485,   7.080e-3
1.486,   7.297e-3
1.487,   7.377e-3
1.488,   7.467e-3
1.489,   7.564e-3
1.490,   7.642e-3
1.491,   7.748e-3
1.492,   7.857e-3
1.493,   7.936e-3
1.494,   8.006e-3
1.495,   8.018e-3
1.496,   8.067e-3
1.497,   8.085e-3
1.498,   8.305e-3
1.499,   8.815e-3
1.500,   8.822e-3
1.501,   8.806e-3
1.502,   8.790e-3
1.503,   8.822e-3
1.504,   8.963e-3
1.505,   9.098e-3
1.506,   9.143e-3
1.507,   9.146e-3
1.508,   9.475e-3
1.509,   1.000e-2
1.510,   1.006e-2
1.511,   1.006e-2
1.512,   1.006e-2
1.513,   1.006e-2
1.514,   1.006e-2
1.515,   1.006e-2
1.516,   1.006e-2
1.517,   1.006e-2
1.518,   9.994e-3
1.519,   9.946e-3
1.520,   9.970e-3