File: Experimental Records and Raw Data/batch1/final500/B1_BEST_500_#10_High_Quality-240mV.txt
Dec. 14, 2022   15:20:12
Linear Sweep Voltammetry
File: d:\current work\al_oer\electrochemical test data\batch 1\500\B1_BEST_500_#10_High_Quality-240mV.txt
Data Source:  Experiment
Instrument Model:  CHI660E
Header:
Note:

Init E (V) = 1.096

Final E (V) = 1.539

Scan Rate (V/s) = 0.010
Sample Interval (V) = 0.001
Quiet Time (sec) = 2
Sensitivity (A/V) = 0.001
Comp R (ohm) = 5.6

Results:

Channel 1:

Potential/V, Current/A
1.096,   1.021e-4
1.097,   9.814e-5
1.098,   9.182e-5
1.099,   8.548e-5
1.100,   7.999e-5
1.101,   7.502e-5
1.102,   7.074e-5
1.103,   6.713e-5
1.104,   6.393e-5
1.105,   6.102e-5
1.106,   5.849e-5
1.107,   5.624e-5
1.108,   5.435e-5
1.109,   5.251e-5
1.110,   5.091e-5
1.111,   4.949e-5
1.112,   4.816e-5
1.113,   4.703e-5
1.114,   4.592e-5
1.115,   4.485e-5
1.116,   4.407e-5
1.117,   4.331e-5
1.118,   4.249e-5
1.119,   4.179e-5
1.120,   4.106e-5
1.121,   4.051e-5
1.122,   4.000e-5
1.123,   3.947e-5
1.124,   3.905e-5
1.125,   3.857e-5
1.126,   3.818e-5
1.127,   3.785e-5
1.128,   3.749e-5
1.129,   3.730e-5
1.130,   3.702e-5
1.131,   3.670e-5
1.132,   3.648e-5
1.133,   3.618e-5
1.134,   3.598e-5
1.135,   3.585e-5
1.136,   3.563e-5
1.137,   3.550e-5
1.138,   3.534e-5
1.139,   3.521e-5
1.140,   3.511e-5
1.141,   3.495e-5
1.142,   3.490e-5
1.143,   3.481e-5
1.144,   3.464e-5
1.145,   3.459e-5
1.146,   3.456e-5
1.147,   3.440e-5
1.148,   3.441e-5
1.149,   3.435e-5
1.150,   3.434e-5
1.151,   3.442e-5
1.152,   3.429e-5
1.153,   3.425e-5
1.154,   3.421e-5
1.155,   3.422e-5
1.156,   3.425e-5
1.157,   3.420e-5
1.158,   3.417e-5
1.159,   3.418e-5
1.160,   3.417e-5
1.161,   3.424e-5
1.162,   3.428e-5
1.163,   3.424e-5
1.164,   3.434e-5
1.165,   3.434e-5
1.166,   3.436e-5
1.167,   3.442e-5
1.168,   3.452e-5
1.169,   3.457e-5
1.170,   3.462e-5
1.171,   3.461e-5
1.172,   3.473e-5
1.173,   3.477e-5
1.174,   3.485e-5
1.175,   3.494e-5
1.176,   3.492e-5
1.177,   3.501e-5
1.178,   3.505e-5
1.179,   3.507e-5
1.180,   3.526e-5
1.181,   3.538e-5
1.182,   3.538e-5
1.183,   3.551e-5
1.184,   3.555e-5
1.185,   3.568e-5
1.186,   3.578e-5
1.187,   3.584e-5
1.188,   3.597e-5
1.189,   3.604e-5
1.190,   3.612e-5
1.191,   3.628e-5
1.192,   3.627e-5
1.193,   3.644e-5
1.194,   3.657e-5
1.195,   3.662e-5
1.196,   3.675e-5
1.197,   3.681e-5
1.198,   3.692e-5
1.199,   3.704e-5
1.200,   3.713e-5
1.201,   3.723e-5
1.202,   3.733e-5
1.203,   3.741e-5
1.204,   3.752e-5
1.205,   3.761e-5
1.206,   3.775e-5
1.207,   3.786e-5
1.208,   3.782e-5
1.209,   3.796e-5
1.210,   3.804e-5
1.211,   3.806e-5
1.212,   3.823e-5
1.213,   3.833e-5
1.214,   3.839e-5
1.215,   3.857e-5
1.216,   3.863e-5
1.217,   3.869e-5
1.218,   3.882e-5
1.219,   3.887e-5
1.220,   3.901e-5
1.221,   3.909e-5
1.222,   3.914e-5
1.223,   3.931e-5
1.224,   3.929e-5
1.225,   3.944e-5
1.226,   3.957e-5
1.227,   3.955e-5
1.228,   3.969e-5
1.229,   3.972e-5
1.230,   3.980e-5
1.231,   3.992e-5
1.232,   3.999e-5
1.233,   4.006e-5
1.234,   4.010e-5
1.235,   4.012e-5
1.236,   4.028e-5
1.237,   4.027e-5
1.238,   4.042e-5
1.239,   4.048e-5
1.240,   4.046e-5
1.241,   4.052e-5
1.242,   4.060e-5
1.243,   4.055e-5
1.244,   4.073e-5
1.245,   4.074e-5
1.246,   4.074e-5
1.247,   4.087e-5
1.248,   4.081e-5
1.249,   4.088e-5
1.250,   4.096e-5
1.251,   4.094e-5
1.252,   4.099e-5
1.253,   4.099e-5
1.254,   4.107e-5
1.255,   4.115e-5
1.256,   4.106e-5
1.257,   4.115e-5
1.258,   4.121e-5
1.259,   4.117e-5
1.260,   4.125e-5
1.261,   4.124e-5
1.262,   4.129e-5
1.263,   4.133e-5
1.264,   4.135e-5
1.265,   4.138e-5
1.266,   4.139e-5
1.267,   4.138e-5
1.268,   4.140e-5
1.269,   4.142e-5
1.270,   4.152e-5
1.271,   4.160e-5
1.272,   4.151e-5
1.273,   4.155e-5
1.274,   4.155e-5
1.275,   4.152e-5
1.276,   4.160e-5
1.277,   4.160e-5
1.278,   4.158e-5
1.279,   4.167e-5
1.280,   4.164e-5
1.281,   4.167e-5
1.282,   4.173e-5
1.283,   4.173e-5
1.284,   4.174e-5
1.285,   4.176e-5
1.286,   4.172e-5
1.287,   4.177e-5
1.288,   4.167e-5
1.289,   4.175e-5
1.290,   4.179e-5
1.291,   4.171e-5
1.292,   4.181e-5
1.293,   4.176e-5
1.294,   4.179e-5
1.295,   4.189e-5
1.296,   4.191e-5
1.297,   4.181e-5
1.298,   4.185e-5
1.299,   4.182e-5
1.300,   4.191e-5
1.301,   4.188e-5
1.302,   4.193e-5
1.303,   4.203e-5
1.304,   4.190e-5
1.305,   4.201e-5
1.306,   4.200e-5
1.307,   4.190e-5
1.308,   4.208e-5
1.309,   4.210e-5
1.310,   4.209e-5
1.311,   4.213e-5
1.312,   4.205e-5
1.313,   4.215e-5
1.314,   4.218e-5
1.315,   4.221e-5
1.316,   4.227e-5
1.317,   4.230e-5
1.318,   4.230e-5
1.319,   4.236e-5
1.320,   4.230e-5
1.321,   4.250e-5
1.322,   4.263e-5
1.323,   4.254e-5
1.324,   4.255e-5
1.325,   4.258e-5
1.326,   4.264e-5
1.327,   4.274e-5
1.328,   4.272e-5
1.329,   4.278e-5
1.330,   4.286e-5
1.331,   4.287e-5
1.332,   4.297e-5
1.333,   4.300e-5
1.334,   4.315e-5
1.335,   4.327e-5
1.336,   4.323e-5
1.337,   4.339e-5
1.338,   4.338e-5
1.339,   4.342e-5
1.340,   4.360e-5
1.341,   4.369e-5
1.342,   4.376e-5
1.343,   4.393e-5
1.344,   4.397e-5
1.345,   4.411e-5
1.346,   4.422e-5
1.347,   4.437e-5
1.348,   4.453e-5
1.349,   4.458e-5
1.350,   4.474e-5
1.351,   4.497e-5
1.352,   4.501e-5
1.353,   4.525e-5
1.354,   4.549e-5
1.355,   4.555e-5
1.356,   4.586e-5
1.357,   4.600e-5
1.358,   4.617e-5
1.359,   4.649e-5
1.360,   4.671e-5
1.361,   4.690e-5
1.362,   4.716e-5
1.363,   4.741e-5
1.364,   4.772e-5
1.365,   4.796e-5
1.366,   4.830e-5
1.367,   4.871e-5
1.368,   4.891e-5
1.369,   4.936e-5
1.370,   4.981e-5
1.371,   5.012e-5
1.372,   5.073e-5
1.373,   5.129e-5
1.374,   5.177e-5
1.375,   5.228e-5
1.376,   5.288e-5
1.377,   5.358e-5
1.378,   5.430e-5
1.379,   5.501e-5
1.380,   5.591e-5
1.381,   5.669e-5
1.382,   5.764e-5
1.383,   5.871e-5
1.384,   5.969e-5
1.385,   6.092e-5
1.386,   6.229e-5
1.387,   6.351e-5
1.388,   6.506e-5
1.389,   6.658e-5
1.390,   6.824e-5
1.391,   7.017e-5
1.392,   7.207e-5
1.393,   7.413e-5
1.394,   7.654e-5
1.395,   7.886e-5
1.396,   8.152e-5
1.397,   8.423e-5
1.398,   8.729e-5
1.399,   9.055e-5
1.400,   9.376e-5
1.401,   9.741e-5
1.402,   1.013e-4
1.403,   1.053e-4
1.404,   1.098e-4
1.405,   1.144e-4
1.406,   1.193e-4
1.407,   1.247e-4
1.408,   1.302e-4
1.409,   1.361e-4
1.410,   1.423e-4
1.411,   1.490e-4
1.412,   1.562e-4
1.413,   1.636e-4
1.414,   1.713e-4
1.415,   1.795e-4
1.416,   1.881e-4
1.417,   1.973e-4
1.418,   2.068e-4
1.419,   2.167e-4
1.420,   2.273e-4
1.421,   2.384e-4
1.422,   2.500e-4
1.423,   2.621e-4
1.424,   2.748e-4
1.425,   2.880e-4
1.426,   3.019e-4
1.427,   3.163e-4
1.428,   3.315e-4
1.429,   3.470e-4
1.430,   3.634e-4
1.431,   3.806e-4
1.432,   3.984e-4
1.433,   4.169e-4
1.434,   4.362e-4
1.435,   4.561e-4
1.436,   4.773e-4
1.437,   4.990e-4
1.438,   5.214e-4
1.439,   5.449e-4
1.440,   5.692e-4
1.441,   5.946e-4
1.442,   6.208e-4
1.443,   6.481e-4
1.444,   6.765e-4
1.445,   7.057e-4
1.446,   7.361e-4
1.447,   7.678e-4
1.448,   8.004e-4
1.449,   8.343e-4
1.450,   8.697e-4
1.451,   9.062e-4
1.452,   9.440e-4
1.453,   9.829e-4
1.454,   1.023e-3
1.455,   1.065e-3
1.456,   1.108e-3
1.457,   1.153e-3
1.458,   1.199e-3
1.459,   1.247e-3
1.460,   1.296e-3
1.461,   1.347e-3
1.462,   1.400e-3
1.463,   1.454e-3
1.464,   1.510e-3
1.465,   1.567e-3
1.466,   1.627e-3
1.467,   1.688e-3
1.468,   1.751e-3
1.469,   1.815e-3
1.470,   1.882e-3
1.471,   1.951e-3
1.472,   2.021e-3
1.473,   2.093e-3
1.474,   2.169e-3
1.475,   2.246e-3
1.476,   2.324e-3
1.477,   2.404e-3
1.478,   2.487e-3
1.479,   2.573e-3
1.480,   2.660e-3
1.481,   2.750e-3
1.482,   2.840e-3
1.483,   2.932e-3
1.484,   3.027e-3
1.485,   3.125e-3
1.486,   3.224e-3
1.487,   3.325e-3
1.488,   3.426e-3
1.489,   3.527e-3
1.490,   3.633e-3
1.491,   3.749e-3
1.492,   3.859e-3
1.493,   3.966e-3
1.494,   4.082e-3
1.495,   4.197e-3
1.496,   4.315e-3
1.497,   4.435e-3
1.498,   4.558e-3
1.499,   4.675e-3
1.500,   4.794e-3
1.501,   4.926e-3
1.502,   5.060e-3
1.503,   5.189e-3
1.504,   5.312e-3
1.505,   5.445e-3
1.506,   5.574e-3
1.507,   5.706e-3
1.508,   5.844e-3
1.509,   5.988e-3
1.510,   6.128e-3
1.511,   6.272e-3
1.512,   6.425e-3
1.513,   6.561e-3
1.514,   6.710e-3
1.515,   6.848e-3
1.516,   7.004e-3
1.517,   7.140e-3
1.518,   7.275e-3
1.519,   7.430e-3
1.520,   7.576e-3
1.521,   7.713e-3
1.522,   7.877e-3
1.523,   8.040e-3
1.524,   8.193e-3
1.525,   8.356e-3
1.526,   8.506e-3
1.527,   8.665e-3
1.528,   8.838e-3
1.529,   9.001e-3
1.530,   9.194e-3
1.531,   9.370e-3
1.532,   9.527e-3
1.533,   9.681e-3
1.534,   9.854e-3
1.535,   1.002e-2
1.536,   1.006e-2
1.537,   1.006e-2
1.538,   1.006e-2
1.539,   1.006e-2