File: Experimental Records and Raw Data/batch1/final500/B1_BEST_500_#17_High_Quality-235mV.txt
Dec. 12, 2022   16:44:03
Linear Sweep Voltammetry
File: d:\current work\al_oer\electrochemical test data\batch 1\500\B1_BEST_500_#17_High_Quality-235mV.txt
Data Source:  Experiment
Instrument Model:  CHI660E
Header:
Note:

Init E (V) = 1.085

Final E (V) = 1.532

Scan Rate (V/s) = 0.010
Sample Interval (V) = 0.001
Quiet Time (sec) = 2
Sensitivity (A/V) = 0.001
Comp R (ohm) = 5.0

Results:

Channel 1:

Potential/V, Current/A
1.085,   5.914e-5
1.086,   6.046e-5
1.087,   5.729e-5
1.088,   5.426e-5
1.089,   5.176e-5
1.090,   4.937e-5
1.091,   4.721e-5
1.092,   4.549e-5
1.093,   4.379e-5
1.094,   4.236e-5
1.095,   4.114e-5
1.096,   3.989e-5
1.097,   3.877e-5
1.098,   3.777e-5
1.099,   3.700e-5
1.100,   3.626e-5
1.101,   3.538e-5
1.102,   3.466e-5
1.103,   3.405e-5
1.104,   3.334e-5
1.105,   3.294e-5
1.106,   3.240e-5
1.107,   3.179e-5
1.108,   3.141e-5
1.109,   3.093e-5
1.110,   3.047e-5
1.111,   3.017e-5
1.112,   2.976e-5
1.113,   2.946e-5
1.114,   2.915e-5
1.115,   2.886e-5
1.116,   2.865e-5
1.117,   2.830e-5
1.118,   2.815e-5
1.119,   2.797e-5
1.120,   2.765e-5
1.121,   2.752e-5
1.122,   2.734e-5
1.123,   2.712e-5
1.124,   2.710e-5
1.125,   2.691e-5
1.126,   2.674e-5
1.127,   2.668e-5
1.128,   2.652e-5
1.129,   2.640e-5
1.130,   2.634e-5
1.131,   2.622e-5
1.132,   2.620e-5
1.133,   2.601e-5
1.134,   2.604e-5
1.135,   2.605e-5
1.136,   2.587e-5
1.137,   2.595e-5
1.138,   2.583e-5
1.139,   2.578e-5
1.140,   2.584e-5
1.141,   2.571e-5
1.142,   2.563e-5
1.143,   2.569e-5
1.144,   2.565e-5
1.145,   2.562e-5
1.146,   2.563e-5
1.147,   2.552e-5
1.148,   2.559e-5
1.149,   2.550e-5
1.150,   2.557e-5
1.151,   2.565e-5
1.152,   2.559e-5
1.153,   2.570e-5
1.154,   2.577e-5
1.155,   2.569e-5
1.156,   2.580e-5
1.157,   2.584e-5
1.158,   2.584e-5
1.159,   2.593e-5
1.160,   2.590e-5
1.161,   2.599e-5
1.162,   2.607e-5
1.163,   2.613e-5
1.164,   2.623e-5
1.165,   2.619e-5
1.166,   2.623e-5
1.167,   2.639e-5
1.168,   2.632e-5
1.169,   2.648e-5
1.170,   2.660e-5
1.171,   2.655e-5
1.172,   2.671e-5
1.173,   2.667e-5
1.174,   2.675e-5
1.175,   2.690e-5
1.176,   2.697e-5
1.177,   2.708e-5
1.178,   2.710e-5
1.179,   2.712e-5
1.180,   2.731e-5
1.181,   2.751e-5
1.182,   2.755e-5
1.183,   2.756e-5
1.184,   2.748e-5
1.185,   2.762e-5
1.186,   2.770e-5
1.187,   2.764e-5
1.188,   2.791e-5
1.189,   2.791e-5
1.190,   2.791e-5
1.191,   2.809e-5
1.192,   2.806e-5
1.193,   2.813e-5
1.194,   2.821e-5
1.195,   2.835e-5
1.196,   2.849e-5
1.197,   2.847e-5
1.198,   2.853e-5
1.199,   2.867e-5
1.200,   2.858e-5
1.201,   2.876e-5
1.202,   2.882e-5
1.203,   2.882e-5
1.204,   2.897e-5
1.205,   2.895e-5
1.206,   2.901e-5
1.207,   2.913e-5
1.208,   2.913e-5
1.209,   2.924e-5
1.210,   2.931e-5
1.211,   2.923e-5
1.212,   2.940e-5
1.213,   2.934e-5
1.214,   2.943e-5
1.215,   2.952e-5
1.216,   2.948e-5
1.217,   2.958e-5
1.218,   2.962e-5
1.219,   2.955e-5
1.220,   2.973e-5
1.221,   2.980e-5
1.222,   2.972e-5
1.223,   2.980e-5
1.224,   2.968e-5
1.225,   2.976e-5
1.226,   2.986e-5
1.227,   2.983e-5
1.228,   2.991e-5
1.229,   2.982e-5
1.230,   2.982e-5
1.231,   2.993e-5
1.232,   2.977e-5
1.233,   2.992e-5
1.234,   2.998e-5
1.235,   2.985e-5
1.236,   2.993e-5
1.237,   2.982e-5
1.238,   2.983e-5
1.239,   2.991e-5
1.240,   2.991e-5
1.241,   2.994e-5
1.242,   2.998e-5
1.243,   2.994e-5
1.244,   3.001e-5
1.245,   2.992e-5
1.246,   2.997e-5
1.247,   3.007e-5
1.248,   2.995e-5
1.249,   3.003e-5
1.250,   3.004e-5
1.251,   3.003e-5
1.252,   3.010e-5
1.253,   3.008e-5
1.254,   2.995e-5
1.255,   3.006e-5
1.256,   3.006e-5
1.257,   3.014e-5
1.258,   3.008e-5
1.259,   3.010e-5
1.260,   3.022e-5
1.261,   3.010e-5
1.262,   3.013e-5
1.263,   3.021e-5
1.264,   3.014e-5
1.265,   3.026e-5
1.266,   3.030e-5
1.267,   3.023e-5
1.268,   3.039e-5
1.269,   3.033e-5
1.270,   3.036e-5
1.271,   3.043e-5
1.272,   3.045e-5
1.273,   3.048e-5
1.274,   3.048e-5
1.275,   3.051e-5
1.276,   3.069e-5
1.277,   3.046e-5
1.278,   3.057e-5
1.279,   3.068e-5
1.280,   3.057e-5
1.281,   3.068e-5
1.282,   3.078e-5
1.283,   3.068e-5
1.284,   3.090e-5
1.285,   3.091e-5
1.286,   3.075e-5
1.287,   3.093e-5
1.288,   3.084e-5
1.289,   3.106e-5
1.290,   3.117e-5
1.291,   3.115e-5
1.292,   3.128e-5
1.293,   3.117e-5
1.294,   3.131e-5
1.295,   3.148e-5
1.296,   3.141e-5
1.297,   3.161e-5
1.298,   3.171e-5
1.299,   3.167e-5
1.300,   3.182e-5
1.301,   3.185e-5
1.302,   3.192e-5
1.303,   3.209e-5
1.304,   3.203e-5
1.305,   3.220e-5
1.306,   3.224e-5
1.307,   3.233e-5
1.308,   3.252e-5
1.309,   3.249e-5
1.310,   3.276e-5
1.311,   3.286e-5
1.312,   3.280e-5
1.313,   3.292e-5
1.314,   3.307e-5
1.315,   3.302e-5
1.316,   3.323e-5
1.317,   3.327e-5
1.318,   3.333e-5
1.319,   3.357e-5
1.320,   3.351e-5
1.321,   3.370e-5
1.322,   3.382e-5
1.323,   3.397e-5
1.324,   3.414e-5
1.325,   3.402e-5
1.326,   3.423e-5
1.327,   3.446e-5
1.328,   3.447e-5
1.329,   3.466e-5
1.330,   3.480e-5
1.331,   3.481e-5
1.332,   3.508e-5
1.333,   3.508e-5
1.334,   3.523e-5
1.335,   3.543e-5
1.336,   3.555e-5
1.337,   3.571e-5
1.338,   3.584e-5
1.339,   3.597e-5
1.340,   3.616e-5
1.341,   3.619e-5
1.342,   3.646e-5
1.343,   3.669e-5
1.344,   3.666e-5
1.345,   3.696e-5
1.346,   3.709e-5
1.347,   3.721e-5
1.348,   3.747e-5
1.349,   3.762e-5
1.350,   3.773e-5
1.351,   3.804e-5
1.352,   3.812e-5
1.353,   3.836e-5
1.354,   3.864e-5
1.355,   3.884e-5
1.356,   3.913e-5
1.357,   3.931e-5
1.358,   3.966e-5
1.359,   4.000e-5
1.360,   4.015e-5
1.361,   4.054e-5
1.362,   4.087e-5
1.363,   4.107e-5
1.364,   4.160e-5
1.365,   4.191e-5
1.366,   4.242e-5
1.367,   4.280e-5
1.368,   4.311e-5
1.369,   4.362e-5
1.370,   4.418e-5
1.371,   4.473e-5
1.372,   4.540e-5
1.373,   4.594e-5
1.374,   4.667e-5
1.375,   4.736e-5
1.376,   4.791e-5
1.377,   4.885e-5
1.378,   4.961e-5
1.379,   5.031e-5
1.380,   5.138e-5
1.381,   5.228e-5
1.382,   5.325e-5
1.383,   5.445e-5
1.384,   5.543e-5
1.385,   5.667e-5
1.386,   5.788e-5
1.387,   5.936e-5
1.388,   6.083e-5
1.389,   6.216e-5
1.390,   6.389e-5
1.391,   6.573e-5
1.392,   6.741e-5
1.393,   6.954e-5
1.394,   7.157e-5
1.395,   7.358e-5
1.396,   7.618e-5
1.397,   7.850e-5
1.398,   8.125e-5
1.399,   8.415e-5
1.400,   8.706e-5
1.401,   9.027e-5
1.402,   9.358e-5
1.403,   9.714e-5
1.404,   1.009e-4
1.405,   1.047e-4
1.406,   1.090e-4
1.407,   1.136e-4
1.408,   1.180e-4
1.409,   1.231e-4
1.410,   1.284e-4
1.411,   1.339e-4
1.412,   1.398e-4
1.413,   1.459e-4
1.414,   1.524e-4
1.415,   1.597e-4
1.416,   1.669e-4
1.417,   1.747e-4
1.418,   1.829e-4
1.419,   1.914e-4
1.420,   2.005e-4
1.421,   2.100e-4
1.422,   2.202e-4
1.423,   2.312e-4
1.424,   2.422e-4
1.425,   2.543e-4
1.426,   2.672e-4
1.427,   2.804e-4
1.428,   2.946e-4
1.429,   3.093e-4
1.430,   3.250e-4
1.431,   3.416e-4
1.432,   3.588e-4
1.433,   3.773e-4
1.434,   3.968e-4
1.435,   4.170e-4
1.436,   4.389e-4
1.437,   4.614e-4
1.438,   4.856e-4
1.439,   5.109e-4
1.440,   5.371e-4
1.441,   5.657e-4
1.442,   5.948e-4
1.443,   6.256e-4
1.444,   6.586e-4
1.445,   6.926e-4
1.446,   7.289e-4
1.447,   7.670e-4
1.448,   8.065e-4
1.449,   8.485e-4
1.450,   8.920e-4
1.451,   9.382e-4
1.452,   9.868e-4
1.453,   1.037e-3
1.454,   1.090e-3
1.455,   1.146e-3
1.456,   1.204e-3
1.457,   1.265e-3
1.458,   1.328e-3
1.459,   1.393e-3
1.460,   1.462e-3
1.461,   1.534e-3
1.462,   1.608e-3
1.463,   1.686e-3
1.464,   1.767e-3
1.465,   1.851e-3
1.466,   1.938e-3
1.467,   2.028e-3
1.468,   2.121e-3
1.469,   2.217e-3
1.470,   2.316e-3
1.471,   2.419e-3
1.472,   2.525e-3
1.473,   2.635e-3
1.474,   2.746e-3
1.475,   2.861e-3
1.476,   2.979e-3
1.477,   3.100e-3
1.478,   3.236e-3
1.479,   3.372e-3
1.480,   3.499e-3
1.481,   3.628e-3
1.482,   3.760e-3
1.483,   3.894e-3
1.484,   4.029e-3
1.485,   4.165e-3
1.486,   4.304e-3
1.487,   4.446e-3
1.488,   4.586e-3
1.489,   4.739e-3
1.490,   4.895e-3
1.491,   5.042e-3
1.492,   5.190e-3
1.493,   5.343e-3
1.494,   5.488e-3
1.495,   5.632e-3
1.496,   5.777e-3
1.497,   5.925e-3
1.498,   6.075e-3
1.499,   6.236e-3
1.500,   6.390e-3
1.501,   6.536e-3
1.502,   6.676e-3
1.503,   6.825e-3
1.504,   6.972e-3
1.505,   7.138e-3
1.506,   7.295e-3
1.507,   7.443e-3
1.508,   7.593e-3
1.509,   7.733e-3
1.510,   7.882e-3
1.511,   8.060e-3
1.512,   8.210e-3
1.513,   8.377e-3
1.514,   8.577e-3
1.515,   8.803e-3
1.516,   9.129e-3
1.517,   9.394e-3
1.518,   9.545e-3
1.519,   9.842e-3
1.520,   1.006e-2
1.521,   1.006e-2
1.522,   1.006e-2
1.523,   1.006e-2
1.524,   1.006e-2
1.525,   1.006e-2
1.526,   1.006e-2
1.527,   1.006e-2
1.528,   1.006e-2
1.529,   1.006e-2
1.530,   1.006e-2
1.531,   1.006e-2
1.532,   1.006e-2