File: Experimental Records and Raw Data/batch1/final500/B1_BEST_500_#20_High_Quality-226mV.txt
Dec. 12, 2022   15:33:56
Linear Sweep Voltammetry
File: d:\current work\al_oer\electrochemical test data\batch 1\500\B1_BEST_500_#20_High_Quality-226mV.txt
Data Source:  Experiment
Instrument Model:  CHI660E
Header:
Note:

Init E (V) = 1.091

Final E (V) = 1.531

Scan Rate (V/s) = 0.010
Sample Interval (V) = 0.001
Quiet Time (sec) = 2
Sensitivity (A/V) = 0.001
Comp R (ohm) = 6.0

Results:

Channel 1:

Potential/V, Current/A
1.091,   3.461e-5
1.092,   4.053e-5
1.093,   3.941e-5
1.094,   3.790e-5
1.095,   3.677e-5
1.096,   3.566e-5
1.097,   3.462e-5
1.098,   3.375e-5
1.099,   3.291e-5
1.100,   3.215e-5
1.101,   3.154e-5
1.102,   3.087e-5
1.103,   3.040e-5
1.104,   2.996e-5
1.105,   2.943e-5
1.106,   2.909e-5
1.107,   2.859e-5
1.108,   2.830e-5
1.109,   2.808e-5
1.110,   2.768e-5
1.111,   2.759e-5
1.112,   2.738e-5
1.113,   2.706e-5
1.114,   2.699e-5
1.115,   2.679e-5
1.116,   2.674e-5
1.117,   2.652e-5
1.118,   2.622e-5
1.119,   2.610e-5
1.120,   2.596e-5
1.121,   2.587e-5
1.122,   2.583e-5
1.123,   2.565e-5
1.124,   2.576e-5
1.125,   2.562e-5
1.126,   2.540e-5
1.127,   2.545e-5
1.128,   2.542e-5
1.129,   2.531e-5
1.130,   2.534e-5
1.131,   2.526e-5
1.132,   2.525e-5
1.133,   2.527e-5
1.134,   2.513e-5
1.135,   2.521e-5
1.136,   2.522e-5
1.137,   2.526e-5
1.138,   2.531e-5
1.139,   2.522e-5
1.140,   2.528e-5
1.141,   2.538e-5
1.142,   2.530e-5
1.143,   2.537e-5
1.144,   2.541e-5
1.145,   2.538e-5
1.146,   2.551e-5
1.147,   2.546e-5
1.148,   2.551e-5
1.149,   2.563e-5
1.150,   2.569e-5
1.151,   2.573e-5
1.152,   2.577e-5
1.153,   2.579e-5
1.154,   2.603e-5
1.155,   2.590e-5
1.156,   2.607e-5
1.157,   2.641e-5
1.158,   2.628e-5
1.159,   2.638e-5
1.160,   2.641e-5
1.161,   2.640e-5
1.162,   2.668e-5
1.163,   2.669e-5
1.164,   2.674e-5
1.165,   2.685e-5
1.166,   2.684e-5
1.167,   2.704e-5
1.168,   2.709e-5
1.169,   2.720e-5
1.170,   2.733e-5
1.171,   2.735e-5
1.172,   2.747e-5
1.173,   2.763e-5
1.174,   2.762e-5
1.175,   2.785e-5
1.176,   2.800e-5
1.177,   2.801e-5
1.178,   2.827e-5
1.179,   2.826e-5
1.180,   2.846e-5
1.181,   2.852e-5
1.182,   2.854e-5
1.183,   2.872e-5
1.184,   2.879e-5
1.185,   2.884e-5
1.186,   2.909e-5
1.187,   2.905e-5
1.188,   2.929e-5
1.189,   2.947e-5
1.190,   2.943e-5
1.191,   2.964e-5
1.192,   2.976e-5
1.193,   2.977e-5
1.194,   2.997e-5
1.195,   3.003e-5
1.196,   3.014e-5
1.197,   3.035e-5
1.198,   3.034e-5
1.199,   3.048e-5
1.200,   3.059e-5
1.201,   3.077e-5
1.202,   3.095e-5
1.203,   3.086e-5
1.204,   3.097e-5
1.205,   3.116e-5
1.206,   3.112e-5
1.207,   3.135e-5
1.208,   3.144e-5
1.209,   3.143e-5
1.210,   3.166e-5
1.211,   3.157e-5
1.212,   3.175e-5
1.213,   3.192e-5
1.214,   3.190e-5
1.215,   3.207e-5
1.216,   3.207e-5
1.217,   3.212e-5
1.218,   3.234e-5
1.219,   3.224e-5
1.220,   3.235e-5
1.221,   3.251e-5
1.222,   3.237e-5
1.223,   3.258e-5
1.224,   3.263e-5
1.225,   3.259e-5
1.226,   3.285e-5
1.227,   3.287e-5
1.228,   3.280e-5
1.229,   3.296e-5
1.230,   3.288e-5
1.231,   3.295e-5
1.232,   3.305e-5
1.233,   3.309e-5
1.234,   3.318e-5
1.235,   3.305e-5
1.236,   3.317e-5
1.237,   3.319e-5
1.238,   3.311e-5
1.239,   3.332e-5
1.240,   3.332e-5
1.241,   3.328e-5
1.242,   3.340e-5
1.243,   3.331e-5
1.244,   3.337e-5
1.245,   3.347e-5
1.246,   3.339e-5
1.247,   3.351e-5
1.248,   3.347e-5
1.249,   3.348e-5
1.250,   3.363e-5
1.251,   3.342e-5
1.252,   3.361e-5
1.253,   3.372e-5
1.254,   3.353e-5
1.255,   3.367e-5
1.256,   3.365e-5
1.257,   3.352e-5
1.258,   3.375e-5
1.259,   3.370e-5
1.260,   3.365e-5
1.261,   3.383e-5
1.262,   3.373e-5
1.263,   3.379e-5
1.264,   3.374e-5
1.265,   3.382e-5
1.266,   3.386e-5
1.267,   3.374e-5
1.268,   3.378e-5
1.269,   3.387e-5
1.270,   3.375e-5
1.271,   3.389e-5
1.272,   3.392e-5
1.273,   3.383e-5
1.274,   3.398e-5
1.275,   3.385e-5
1.276,   3.387e-5
1.277,   3.399e-5
1.278,   3.397e-5
1.279,   3.398e-5
1.280,   3.394e-5
1.281,   3.395e-5
1.282,   3.409e-5
1.283,   3.396e-5
1.284,   3.400e-5
1.285,   3.418e-5
1.286,   3.400e-5
1.287,   3.409e-5
1.288,   3.412e-5
1.289,   3.400e-5
1.290,   3.421e-5
1.291,   3.420e-5
1.292,   3.424e-5
1.293,   3.427e-5
1.294,   3.417e-5
1.295,   3.431e-5
1.296,   3.429e-5
1.297,   3.431e-5
1.298,   3.434e-5
1.299,   3.433e-5
1.300,   3.435e-5
1.301,   3.445e-5
1.302,   3.436e-5
1.303,   3.455e-5
1.304,   3.465e-5
1.305,   3.449e-5
1.306,   3.465e-5
1.307,   3.466e-5
1.308,   3.466e-5
1.309,   3.472e-5
1.310,   3.465e-5
1.311,   3.480e-5
1.312,   3.480e-5
1.313,   3.484e-5
1.314,   3.504e-5
1.315,   3.489e-5
1.316,   3.516e-5
1.317,   3.521e-5
1.318,   3.503e-5
1.319,   3.522e-5
1.320,   3.524e-5
1.321,   3.522e-5
1.322,   3.536e-5
1.323,   3.541e-5
1.324,   3.548e-5
1.325,   3.562e-5
1.326,   3.552e-5
1.327,   3.566e-5
1.328,   3.569e-5
1.329,   3.588e-5
1.330,   3.596e-5
1.331,   3.592e-5
1.332,   3.606e-5
1.333,   3.620e-5
1.334,   3.606e-5
1.335,   3.634e-5
1.336,   3.651e-5
1.337,   3.639e-5
1.338,   3.670e-5
1.339,   3.676e-5
1.340,   3.683e-5
1.341,   3.702e-5
1.342,   3.704e-5
1.343,   3.725e-5
1.344,   3.727e-5
1.345,   3.735e-5
1.346,   3.757e-5
1.347,   3.760e-5
1.348,   3.777e-5
1.349,   3.799e-5
1.350,   3.798e-5
1.351,   3.823e-5
1.352,   3.840e-5
1.353,   3.856e-5
1.354,   3.885e-5
1.355,   3.907e-5
1.356,   3.917e-5
1.357,   3.953e-5
1.358,   3.962e-5
1.359,   3.991e-5
1.360,   4.018e-5
1.361,   4.049e-5
1.362,   4.094e-5
1.363,   4.102e-5
1.364,   4.144e-5
1.365,   4.191e-5
1.366,   4.211e-5
1.367,   4.272e-5
1.368,   4.312e-5
1.369,   4.354e-5
1.370,   4.416e-5
1.371,   4.454e-5
1.372,   4.510e-5
1.373,   4.582e-5
1.374,   4.644e-5
1.375,   4.721e-5
1.376,   4.788e-5
1.377,   4.872e-5
1.378,   4.972e-5
1.379,   5.050e-5
1.380,   5.167e-5
1.381,   5.277e-5
1.382,   5.373e-5
1.383,   5.514e-5
1.384,   5.628e-5
1.385,   5.770e-5
1.386,   5.947e-5
1.387,   6.099e-5
1.388,   6.276e-5
1.389,   6.476e-5
1.390,   6.667e-5
1.391,   6.901e-5
1.392,   7.133e-5
1.393,   7.389e-5
1.394,   7.675e-5
1.395,   7.948e-5
1.396,   8.269e-5
1.397,   8.614e-5
1.398,   8.950e-5
1.399,   9.348e-5
1.400,   9.752e-5
1.401,   1.017e-4
1.402,   1.065e-4
1.403,   1.113e-4
1.404,   1.166e-4
1.405,   1.223e-4
1.406,   1.282e-4
1.407,   1.346e-4
1.408,   1.412e-4
1.409,   1.482e-4
1.410,   1.561e-4
1.411,   1.639e-4
1.412,   1.726e-4
1.413,   1.818e-4
1.414,   1.910e-4
1.415,   2.013e-4
1.416,   2.119e-4
1.417,   2.231e-4
1.418,   2.354e-4
1.419,   2.481e-4
1.420,   2.614e-4
1.421,   2.758e-4
1.422,   2.905e-4
1.423,   3.066e-4
1.424,   3.234e-4
1.425,   3.409e-4
1.426,   3.598e-4
1.427,   3.792e-4
1.428,   4.002e-4
1.429,   4.223e-4
1.430,   4.455e-4
1.431,   4.706e-4
1.432,   4.969e-4
1.433,   5.242e-4
1.434,   5.532e-4
1.435,   5.837e-4
1.436,   6.173e-4
1.437,   6.514e-4
1.438,   6.875e-4
1.439,   7.271e-4
1.440,   7.678e-4
1.441,   8.109e-4
1.442,   8.566e-4
1.443,   9.043e-4
1.444,   9.556e-4
1.445,   1.011e-3
1.446,   1.067e-3
1.447,   1.126e-3
1.448,   1.192e-3
1.449,   1.255e-3
1.450,   1.329e-3
1.451,   1.400e-3
1.452,   1.481e-3
1.453,   1.563e-3
1.454,   1.647e-3
1.455,   1.739e-3
1.456,   1.835e-3
1.457,   1.933e-3
1.458,   2.036e-3
1.459,   2.144e-3
1.460,   2.257e-3
1.461,   2.375e-3
1.462,   2.496e-3
1.463,   2.622e-3
1.464,   2.752e-3
1.465,   2.885e-3
1.466,   3.022e-3
1.467,   3.164e-3
1.468,   3.312e-3
1.469,   3.462e-3
1.470,   3.619e-3
1.471,   3.781e-3
1.472,   3.952e-3
1.473,   4.128e-3
1.474,   4.309e-3
1.475,   4.494e-3
1.476,   4.678e-3
1.477,   4.870e-3
1.478,   5.067e-3
1.479,   5.265e-3
1.480,   5.465e-3
1.481,   5.669e-3
1.482,   5.877e-3
1.483,   6.085e-3
1.484,   6.297e-3
1.485,   6.492e-3
1.486,   6.705e-3
1.487,   6.917e-3
1.488,   7.129e-3
1.489,   7.357e-3
1.490,   7.583e-3
1.491,   7.803e-3
1.492,   8.037e-3
1.493,   8.258e-3
1.494,   8.481e-3
1.495,   8.711e-3
1.496,   8.942e-3
1.497,   9.173e-3
1.498,   9.394e-3
1.499,   9.601e-3
1.500,   9.836e-3
1.501,   1.004e-2
1.502,   1.006e-2
1.503,   1.006e-2
1.504,   1.006e-2
1.505,   1.006e-2
1.506,   1.006e-2
1.507,   1.006e-2
1.508,   1.006e-2
1.509,   1.006e-2
1.510,   1.006e-2
1.511,   1.006e-2
1.512,   1.006e-2
1.513,   1.006e-2
1.514,   1.006e-2
1.515,   1.006e-2
1.516,   1.006e-2
1.517,   1.006e-2
1.518,   1.006e-2
1.519,   1.006e-2
1.520,   1.006e-2
1.521,   1.006e-2
1.522,   1.006e-2
1.523,   1.006e-2
1.524,   1.006e-2
1.525,   1.006e-2
1.526,   1.006e-2
1.527,   1.006e-2
1.528,   1.006e-2
1.529,   1.006e-2
1.530,   1.006e-2
1.531,   1.006e-2