File: Experimental Records and Raw Data/batch1/final500/B1_BEST_500_#16_High_Quality-227mV.txt
Dec. 14, 2022   15:52:20
Linear Sweep Voltammetry
File: d:\current work\al_oer\electrochemical test data\batch 1\500\B1_BEST_500_#16_High_Quality-227mV.txt
Data Source:  Experiment
Instrument Model:  CHI660E
Header:
Note:

Init E (V) = 1.092

Final E (V) = 1.509

Scan Rate (V/s) = 0.010
Sample Interval (V) = 0.001
Quiet Time (sec) = 2
Sensitivity (A/V) = 0.001
Comp R (ohm) = 5.8

Results:

Channel 1:

Potential/V, Current/A
1.092,   3.221e-5
1.093,   3.771e-5
1.094,   3.696e-5
1.095,   3.552e-5
1.096,   3.427e-5
1.097,   3.311e-5
1.098,   3.207e-5
1.099,   3.126e-5
1.100,   3.050e-5
1.101,   2.979e-5
1.102,   2.919e-5
1.103,   2.854e-5
1.104,   2.813e-5
1.105,   2.763e-5
1.106,   2.725e-5
1.107,   2.690e-5
1.108,   2.650e-5
1.109,   2.624e-5
1.110,   2.598e-5
1.111,   2.566e-5
1.112,   2.554e-5
1.113,   2.537e-5
1.114,   2.506e-5
1.115,   2.494e-5
1.116,   2.470e-5
1.117,   2.457e-5
1.118,   2.449e-5
1.119,   2.429e-5
1.120,   2.428e-5
1.121,   2.417e-5
1.122,   2.405e-5
1.123,   2.405e-5
1.124,   2.387e-5
1.125,   2.390e-5
1.126,   2.387e-5
1.127,   2.371e-5
1.128,   2.376e-5
1.129,   2.368e-5
1.130,   2.360e-5
1.131,   2.367e-5
1.132,   2.359e-5
1.133,   2.356e-5
1.134,   2.360e-5
1.135,   2.354e-5
1.136,   2.359e-5
1.137,   2.351e-5
1.138,   2.356e-5
1.139,   2.366e-5
1.140,   2.362e-5
1.141,   2.364e-5
1.142,   2.371e-5
1.143,   2.364e-5
1.144,   2.370e-5
1.145,   2.378e-5
1.146,   2.372e-5
1.147,   2.384e-5
1.148,   2.382e-5
1.149,   2.388e-5
1.150,   2.394e-5
1.151,   2.398e-5
1.152,   2.405e-5
1.153,   2.406e-5
1.154,   2.409e-5
1.155,   2.420e-5
1.156,   2.414e-5
1.157,   2.429e-5
1.158,   2.436e-5
1.159,   2.436e-5
1.160,   2.450e-5
1.161,   2.452e-5
1.162,   2.454e-5
1.163,   2.468e-5
1.164,   2.475e-5
1.165,   2.480e-5
1.166,   2.492e-5
1.167,   2.486e-5
1.168,   2.501e-5
1.169,   2.509e-5
1.170,   2.514e-5
1.171,   2.530e-5
1.172,   2.525e-5
1.173,   2.540e-5
1.174,   2.552e-5
1.175,   2.547e-5
1.176,   2.562e-5
1.177,   2.574e-5
1.178,   2.575e-5
1.179,   2.594e-5
1.180,   2.593e-5
1.181,   2.603e-5
1.182,   2.615e-5
1.183,   2.620e-5
1.184,   2.635e-5
1.185,   2.635e-5
1.186,   2.641e-5
1.187,   2.661e-5
1.188,   2.660e-5
1.189,   2.678e-5
1.190,   2.687e-5
1.191,   2.685e-5
1.192,   2.704e-5
1.193,   2.709e-5
1.194,   2.714e-5
1.195,   2.730e-5
1.196,   2.733e-5
1.197,   2.742e-5
1.198,   2.752e-5
1.199,   2.758e-5
1.200,   2.772e-5
1.201,   2.781e-5
1.202,   2.788e-5
1.203,   2.802e-5
1.204,   2.795e-5
1.205,   2.816e-5
1.206,   2.826e-5
1.207,   2.821e-5
1.208,   2.841e-5
1.209,   2.850e-5
1.210,   2.855e-5
1.211,   2.873e-5
1.212,   2.866e-5
1.213,   2.879e-5
1.214,   2.890e-5
1.215,   2.896e-5
1.216,   2.908e-5
1.217,   2.913e-5
1.218,   2.919e-5
1.219,   2.936e-5
1.220,   2.931e-5
1.221,   2.947e-5
1.222,   2.956e-5
1.223,   2.947e-5
1.224,   2.969e-5
1.225,   2.975e-5
1.226,   2.976e-5
1.227,   2.994e-5
1.228,   2.998e-5
1.229,   3.001e-5
1.230,   3.009e-5
1.231,   3.010e-5
1.232,   3.020e-5
1.233,   3.026e-5
1.234,   3.032e-5
1.235,   3.050e-5
1.236,   3.043e-5
1.237,   3.050e-5
1.238,   3.063e-5
1.239,   3.058e-5
1.240,   3.075e-5
1.241,   3.073e-5
1.242,   3.077e-5
1.243,   3.092e-5
1.244,   3.085e-5
1.245,   3.093e-5
1.246,   3.106e-5
1.247,   3.105e-5
1.248,   3.114e-5
1.249,   3.117e-5
1.250,   3.119e-5
1.251,   3.134e-5
1.252,   3.124e-5
1.253,   3.141e-5
1.254,   3.151e-5
1.255,   3.139e-5
1.256,   3.153e-5
1.257,   3.152e-5
1.258,   3.154e-5
1.259,   3.168e-5
1.260,   3.167e-5
1.261,   3.167e-5
1.262,   3.180e-5
1.263,   3.178e-5
1.264,   3.189e-5
1.265,   3.184e-5
1.266,   3.197e-5
1.267,   3.205e-5
1.268,   3.196e-5
1.269,   3.204e-5
1.270,   3.212e-5
1.271,   3.210e-5
1.272,   3.219e-5
1.273,   3.219e-5
1.274,   3.221e-5
1.275,   3.234e-5
1.276,   3.226e-5
1.277,   3.234e-5
1.278,   3.240e-5
1.279,   3.242e-5
1.280,   3.246e-5
1.281,   3.244e-5
1.282,   3.244e-5
1.283,   3.262e-5
1.284,   3.248e-5
1.285,   3.262e-5
1.286,   3.276e-5
1.287,   3.263e-5
1.288,   3.271e-5
1.289,   3.272e-5
1.290,   3.273e-5
1.291,   3.283e-5
1.292,   3.287e-5
1.293,   3.283e-5
1.294,   3.291e-5
1.295,   3.286e-5
1.296,   3.301e-5
1.297,   3.296e-5
1.298,   3.302e-5
1.299,   3.316e-5
1.300,   3.305e-5
1.301,   3.310e-5
1.302,   3.327e-5
1.303,   3.309e-5
1.304,   3.324e-5
1.305,   3.332e-5
1.306,   3.324e-5
1.307,   3.341e-5
1.308,   3.334e-5
1.309,   3.344e-5
1.310,   3.350e-5
1.311,   3.353e-5
1.312,   3.361e-5
1.313,   3.355e-5
1.314,   3.358e-5
1.315,   3.374e-5
1.316,   3.368e-5
1.317,   3.398e-5
1.318,   3.405e-5
1.319,   3.388e-5
1.320,   3.403e-5
1.321,   3.404e-5
1.322,   3.406e-5
1.323,   3.419e-5
1.324,   3.417e-5
1.325,   3.425e-5
1.326,   3.440e-5
1.327,   3.458e-5
1.328,   3.459e-5
1.329,   3.452e-5
1.330,   3.461e-5
1.331,   3.474e-5
1.332,   3.473e-5
1.333,   3.484e-5
1.334,   3.503e-5
1.335,   3.494e-5
1.336,   3.517e-5
1.337,   3.523e-5
1.338,   3.522e-5
1.339,   3.547e-5
1.340,   3.545e-5
1.341,   3.555e-5
1.342,   3.571e-5
1.343,   3.579e-5
1.344,   3.592e-5
1.345,   3.605e-5
1.346,   3.614e-5
1.347,   3.639e-5
1.348,   3.642e-5
1.349,   3.663e-5
1.350,   3.684e-5
1.351,   3.688e-5
1.352,   3.714e-5
1.353,   3.731e-5
1.354,   3.741e-5
1.355,   3.763e-5
1.356,   3.782e-5
1.357,   3.796e-5
1.358,   3.823e-5
1.359,   3.839e-5
1.360,   3.863e-5
1.361,   3.889e-5
1.362,   3.920e-5
1.363,   3.959e-5
1.364,   3.978e-5
1.365,   4.020e-5
1.366,   4.061e-5
1.367,   4.087e-5
1.368,   4.143e-5
1.369,   4.193e-5
1.370,   4.227e-5
1.371,   4.292e-5
1.372,   4.337e-5
1.373,   4.441e-5
1.374,   4.508e-5
1.375,   4.530e-5
1.376,   4.603e-5
1.377,   4.685e-5
1.378,   4.769e-5
1.379,   4.868e-5
1.380,   4.951e-5
1.381,   5.070e-5
1.382,   5.188e-5
1.383,   5.301e-5
1.384,   5.443e-5
1.385,   5.579e-5
1.386,   5.728e-5
1.387,   5.916e-5
1.388,   6.089e-5
1.389,   6.284e-5
1.390,   6.508e-5
1.391,   6.717e-5
1.392,   6.976e-5
1.393,   7.237e-5
1.394,   7.524e-5
1.395,   7.848e-5
1.396,   8.160e-5
1.397,   8.518e-5
1.398,   8.903e-5
1.399,   9.286e-5
1.400,   9.733e-5
1.401,   1.020e-4
1.402,   1.068e-4
1.403,   1.122e-4
1.404,   1.177e-4
1.405,   1.238e-4
1.406,   1.304e-4
1.407,   1.372e-4
1.408,   1.445e-4
1.409,   1.522e-4
1.410,   1.606e-4
1.411,   1.696e-4
1.412,   1.786e-4
1.413,   1.886e-4
1.414,   1.990e-4
1.415,   2.099e-4
1.416,   2.217e-4
1.417,   2.342e-4
1.418,   2.474e-4
1.419,   2.614e-4
1.420,   2.760e-4
1.421,   2.914e-4
1.422,   3.080e-4
1.423,   3.251e-4
1.424,   3.434e-4
1.425,   3.624e-4
1.426,   3.825e-4
1.427,   4.041e-4
1.428,   4.261e-4
1.429,   4.498e-4
1.430,   4.746e-4
1.431,   5.005e-4
1.432,   5.279e-4
1.433,   5.567e-4
1.434,   5.868e-4
1.435,   6.187e-4
1.436,   6.519e-4
1.437,   6.869e-4
1.438,   7.237e-4
1.439,   7.620e-4
1.440,   8.025e-4
1.441,   8.443e-4
1.442,   8.889e-4
1.443,   9.358e-4
1.444,   9.839e-4
1.445,   1.035e-3
1.446,   1.089e-3
1.447,   1.144e-3
1.448,   1.202e-3
1.449,   1.263e-3
1.450,   1.326e-3
1.451,   1.393e-3
1.452,   1.462e-3
1.453,   1.535e-3
1.454,   1.610e-3
1.455,   1.689e-3
1.456,   1.772e-3
1.457,   1.856e-3
1.458,   1.945e-3
1.459,   2.040e-3
1.460,   2.135e-3
1.461,   2.234e-3
1.462,   2.337e-3
1.463,   2.445e-3
1.464,   2.557e-3
1.465,   2.671e-3
1.466,   2.788e-3
1.467,   2.917e-3
1.468,   3.060e-3
1.469,   3.196e-3
1.470,   3.332e-3
1.471,   3.474e-3
1.472,   3.615e-3
1.473,   3.760e-3
1.474,   3.913e-3
1.475,   4.072e-3
1.476,   4.225e-3
1.477,   4.384e-3
1.478,   4.553e-3
1.479,   4.711e-3
1.480,   4.874e-3
1.481,   5.037e-3
1.482,   5.249e-3
1.483,   5.448e-3
1.484,   5.629e-3
1.485,   5.803e-3
1.486,   6.056e-3
1.487,   6.267e-3
1.488,   6.416e-3
1.489,   6.564e-3
1.490,   6.730e-3
1.491,   6.951e-3
1.492,   7.181e-3
1.493,   7.346e-3
1.494,   7.536e-3
1.495,   7.719e-3
1.496,   7.945e-3
1.497,   8.137e-3
1.498,   8.317e-3
1.499,   8.494e-3
1.500,   8.650e-3
1.501,   8.868e-3
1.502,   9.159e-3
1.503,   9.343e-3
1.504,   9.494e-3
1.505,   9.883e-3
1.506,   1.006e-2
1.507,   1.006e-2
1.508,   1.006e-2
1.509,   1.006e-2