File: Experimental Records and Raw Data/batch1/final500/B1_VARIANCE_500_#24_Full-249mV.txt
Dec. 12, 2022   14:35:32
Linear Sweep Voltammetry
File: d:\current work\al_oer\electrochemical test data\batch 1\500\B1_VARIANCE_500_#24_Full-249mV.txt
Data Source:  Experiment
Instrument Model:  CHI660E
Header:
Note:

Init E (V) = 1.087

Final E (V) = 1.629

Scan Rate (V/s) = 0.010
Sample Interval (V) = 0.001
Quiet Time (sec) = 2
Sensitivity (A/V) = 0.001
Comp R (ohm) = 4.9

Results:

Channel 1:

Potential/V, Current/A
1.087,   1.469e-4
1.088,   1.367e-4
1.089,   1.264e-4
1.090,   1.167e-4
1.091,   1.084e-4
1.092,   1.011e-4
1.093,   9.479e-5
1.094,   8.940e-5
1.095,   8.456e-5
1.096,   8.035e-5
1.097,   7.655e-5
1.098,   7.312e-5
1.099,   7.025e-5
1.100,   6.756e-5
1.101,   6.531e-5
1.102,   6.313e-5
1.103,   6.114e-5
1.104,   5.935e-5
1.105,   5.777e-5
1.106,   5.634e-5
1.107,   5.510e-5
1.108,   5.400e-5
1.109,   5.281e-5
1.110,   5.180e-5
1.111,   5.090e-5
1.112,   5.010e-5
1.113,   4.929e-5
1.114,   4.855e-5
1.115,   4.793e-5
1.116,   4.720e-5
1.117,   4.662e-5
1.118,   4.610e-5
1.119,   4.555e-5
1.120,   4.515e-5
1.121,   4.478e-5
1.122,   4.435e-5
1.123,   4.405e-5
1.124,   4.369e-5
1.125,   4.339e-5
1.126,   4.315e-5
1.127,   4.293e-5
1.128,   4.265e-5
1.129,   4.242e-5
1.130,   4.220e-5
1.131,   4.203e-5
1.132,   4.185e-5
1.133,   4.171e-5
1.134,   4.160e-5
1.135,   4.143e-5
1.136,   4.135e-5
1.137,   4.124e-5
1.138,   4.113e-5
1.139,   4.110e-5
1.140,   4.105e-5
1.141,   4.099e-5
1.142,   4.098e-5
1.143,   4.089e-5
1.144,   4.086e-5
1.145,   4.081e-5
1.146,   4.085e-5
1.147,   4.089e-5
1.148,   4.084e-5
1.149,   4.084e-5
1.150,   4.090e-5
1.151,   4.085e-5
1.152,   4.096e-5
1.153,   4.098e-5
1.154,   4.095e-5
1.155,   4.105e-5
1.156,   4.107e-5
1.157,   4.111e-5
1.158,   4.122e-5
1.159,   4.129e-5
1.160,   4.139e-5
1.161,   4.142e-5
1.162,   4.145e-5
1.163,   4.161e-5
1.164,   4.161e-5
1.165,   4.170e-5
1.166,   4.183e-5
1.167,   4.188e-5
1.168,   4.199e-5
1.169,   4.209e-5
1.170,   4.214e-5
1.171,   4.230e-5
1.172,   4.243e-5
1.173,   4.250e-5
1.174,   4.264e-5
1.175,   4.272e-5
1.176,   4.283e-5
1.177,   4.294e-5
1.178,   4.311e-5
1.179,   4.322e-5
1.180,   4.330e-5
1.181,   4.341e-5
1.182,   4.361e-5
1.183,   4.366e-5
1.184,   4.384e-5
1.185,   4.400e-5
1.186,   4.408e-5
1.187,   4.424e-5
1.188,   4.439e-5
1.189,   4.449e-5
1.190,   4.463e-5
1.191,   4.474e-5
1.192,   4.487e-5
1.193,   4.497e-5
1.194,   4.511e-5
1.195,   4.526e-5
1.196,   4.540e-5
1.197,   4.556e-5
1.198,   4.571e-5
1.199,   4.576e-5
1.200,   4.586e-5
1.201,   4.602e-5
1.202,   4.606e-5
1.203,   4.623e-5
1.204,   4.632e-5
1.205,   4.639e-5
1.206,   4.654e-5
1.207,   4.664e-5
1.208,   4.674e-5
1.209,   4.682e-5
1.210,   4.692e-5
1.211,   4.708e-5
1.212,   4.716e-5
1.213,   4.721e-5
1.214,   4.733e-5
1.215,   4.738e-5
1.216,   4.754e-5
1.217,   4.761e-5
1.218,   4.767e-5
1.219,   4.777e-5
1.220,   4.777e-5
1.221,   4.780e-5
1.222,   4.786e-5
1.223,   4.794e-5
1.224,   4.801e-5
1.225,   4.808e-5
1.226,   4.810e-5
1.227,   4.821e-5
1.228,   4.823e-5
1.229,   4.827e-5
1.230,   4.831e-5
1.231,   4.829e-5
1.232,   4.838e-5
1.233,   4.842e-5
1.234,   4.832e-5
1.235,   4.838e-5
1.236,   4.841e-5
1.237,   4.836e-5
1.238,   4.841e-5
1.239,   4.838e-5
1.240,   4.842e-5
1.241,   4.842e-5
1.242,   4.838e-5
1.243,   4.842e-5
1.244,   4.837e-5
1.245,   4.836e-5
1.246,   4.842e-5
1.247,   4.833e-5
1.248,   4.838e-5
1.249,   4.836e-5
1.250,   4.824e-5
1.251,   4.825e-5
1.252,   4.820e-5
1.253,   4.814e-5
1.254,   4.818e-5
1.255,   4.808e-5
1.256,   4.814e-5
1.257,   4.807e-5
1.258,   4.801e-5
1.259,   4.803e-5
1.260,   4.800e-5
1.261,   4.802e-5
1.262,   4.798e-5
1.263,   4.789e-5
1.264,   4.788e-5
1.265,   4.783e-5
1.266,   4.776e-5
1.267,   4.781e-5
1.268,   4.775e-5
1.269,   4.767e-5
1.270,   4.764e-5
1.271,   4.759e-5
1.272,   4.757e-5
1.273,   4.755e-5
1.274,   4.749e-5
1.275,   4.754e-5
1.276,   4.741e-5
1.277,   4.739e-5
1.278,   4.746e-5
1.279,   4.739e-5
1.280,   4.737e-5
1.281,   4.736e-5
1.282,   4.726e-5
1.283,   4.732e-5
1.284,   4.720e-5
1.285,   4.719e-5
1.286,   4.725e-5
1.287,   4.723e-5
1.288,   4.725e-5
1.289,   4.721e-5
1.290,   4.721e-5
1.291,   4.732e-5
1.292,   4.740e-5
1.293,   4.730e-5
1.294,   4.724e-5
1.295,   4.714e-5
1.296,   4.716e-5
1.297,   4.719e-5
1.298,   4.714e-5
1.299,   4.722e-5
1.300,   4.725e-5
1.301,   4.721e-5
1.302,   4.728e-5
1.303,   4.725e-5
1.304,   4.787e-5
1.305,   4.847e-5
1.306,   4.813e-5
1.307,   4.793e-5
1.308,   4.776e-5
1.309,   4.772e-5
1.310,   4.772e-5
1.311,   4.763e-5
1.312,   4.776e-5
1.313,   4.787e-5
1.314,   4.775e-5
1.315,   4.782e-5
1.316,   4.784e-5
1.317,   4.785e-5
1.318,   4.795e-5
1.319,   4.796e-5
1.320,   4.808e-5
1.321,   4.811e-5
1.322,   4.818e-5
1.323,   4.836e-5
1.324,   4.837e-5
1.325,   4.858e-5
1.326,   4.873e-5
1.327,   4.869e-5
1.328,   4.878e-5
1.329,   4.891e-5
1.330,   4.904e-5
1.331,   4.929e-5
1.332,   4.935e-5
1.333,   4.949e-5
1.334,   4.962e-5
1.335,   4.967e-5
1.336,   4.988e-5
1.337,   4.999e-5
1.338,   5.014e-5
1.339,   5.041e-5
1.340,   5.047e-5
1.341,   5.061e-5
1.342,   5.087e-5
1.343,   5.098e-5
1.344,   5.125e-5
1.345,   5.147e-5
1.346,   5.159e-5
1.347,   5.189e-5
1.348,   5.206e-5
1.349,   5.230e-5
1.350,   5.261e-5
1.351,   5.287e-5
1.352,   5.318e-5
1.353,   5.344e-5
1.354,   5.374e-5
1.355,   5.412e-5
1.356,   5.437e-5
1.357,   5.468e-5
1.358,   5.514e-5
1.359,   5.539e-5
1.360,   5.585e-5
1.361,   5.630e-5
1.362,   5.665e-5
1.363,   5.722e-5
1.364,   5.773e-5
1.365,   5.816e-5
1.366,   5.870e-5
1.367,   5.926e-5
1.368,   5.991e-5
1.369,   6.059e-5
1.370,   6.124e-5
1.371,   6.199e-5
1.372,   6.269e-5
1.373,   6.364e-5
1.374,   6.454e-5
1.375,   6.544e-5
1.376,   6.655e-5
1.377,   6.771e-5
1.378,   6.875e-5
1.379,   7.014e-5
1.380,   7.139e-5
1.381,   7.285e-5
1.382,   7.436e-5
1.383,   7.601e-5
1.384,   7.789e-5
1.385,   7.978e-5
1.386,   8.177e-5
1.387,   8.398e-5
1.388,   8.622e-5
1.389,   8.873e-5
1.390,   9.145e-5
1.391,   9.427e-5
1.392,   9.724e-5
1.393,   1.004e-4
1.394,   1.037e-4
1.395,   1.074e-4
1.396,   1.113e-4
1.397,   1.153e-4
1.398,   1.197e-4
1.399,   1.242e-4
1.400,   1.291e-4
1.401,   1.341e-4
1.402,   1.397e-4
1.403,   1.454e-4
1.404,   1.513e-4
1.405,   1.576e-4
1.406,   1.643e-4
1.407,   1.711e-4
1.408,   1.783e-4
1.409,   1.859e-4
1.410,   1.937e-4
1.411,   2.019e-4
1.412,   2.105e-4
1.413,   2.194e-4
1.414,   2.287e-4
1.415,   2.385e-4
1.416,   2.486e-4
1.417,   2.590e-4
1.418,   2.698e-4
1.419,   2.812e-4
1.420,   2.928e-4
1.421,   3.051e-4
1.422,   3.178e-4
1.423,   3.306e-4
1.424,   3.441e-4
1.425,   3.577e-4
1.426,   3.719e-4
1.427,   3.867e-4
1.428,   4.021e-4
1.429,   4.177e-4
1.430,   4.339e-4
1.431,   4.504e-4
1.432,   4.679e-4
1.433,   4.858e-4
1.434,   5.040e-4
1.435,   5.229e-4
1.436,   5.423e-4
1.437,   5.628e-4
1.438,   5.833e-4
1.439,   6.046e-4
1.440,   6.267e-4
1.441,   6.498e-4
1.442,   6.731e-4
1.443,   6.973e-4
1.444,   7.224e-4
1.445,   7.477e-4
1.446,   7.740e-4
1.447,   8.006e-4
1.448,   8.284e-4
1.449,   8.563e-4
1.450,   8.843e-4
1.451,   9.130e-4
1.452,   9.414e-4
1.453,   9.702e-4
1.454,   1.000e-3
1.455,   1.031e-3
1.456,   1.061e-3
1.457,   1.092e-3
1.458,   1.123e-3
1.459,   1.156e-3
1.460,   1.190e-3
1.461,   1.222e-3
1.462,   1.255e-3
1.463,   1.290e-3
1.464,   1.324e-3
1.465,   1.360e-3
1.466,   1.396e-3
1.467,   1.432e-3
1.468,   1.468e-3
1.469,   1.507e-3
1.470,   1.545e-3
1.471,   1.586e-3
1.472,   1.626e-3
1.473,   1.666e-3
1.474,   1.707e-3
1.475,   1.749e-3
1.476,   1.791e-3
1.477,   1.833e-3
1.478,   1.875e-3
1.479,   1.919e-3
1.480,   1.965e-3
1.481,   2.009e-3
1.482,   2.053e-3
1.483,   2.097e-3
1.484,   2.142e-3
1.485,   2.189e-3
1.486,   2.235e-3
1.487,   2.280e-3
1.488,   2.328e-3
1.489,   2.377e-3
1.490,   2.423e-3
1.491,   2.471e-3
1.492,   2.521e-3
1.493,   2.568e-3
1.494,   2.616e-3
1.495,   2.663e-3
1.496,   2.712e-3
1.497,   2.761e-3
1.498,   2.810e-3
1.499,   2.859e-3
1.500,   2.910e-3
1.501,   2.959e-3
1.502,   3.009e-3
1.503,   3.060e-3
1.504,   3.111e-3
1.505,   3.164e-3
1.506,   3.217e-3
1.507,   3.270e-3
1.508,   3.324e-3
1.509,   3.375e-3
1.510,   3.428e-3
1.511,   3.481e-3
1.512,   3.536e-3
1.513,   3.589e-3
1.514,   3.643e-3
1.515,   3.698e-3
1.516,   3.752e-3
1.517,   3.806e-3
1.518,   3.863e-3
1.519,   3.920e-3
1.520,   3.974e-3
1.521,   4.029e-3
1.522,   4.087e-3
1.523,   4.143e-3
1.524,   4.198e-3
1.525,   4.257e-3
1.526,   4.314e-3
1.527,   4.370e-3
1.528,   4.426e-3
1.529,   4.484e-3
1.530,   4.541e-3
1.531,   4.601e-3
1.532,   4.658e-3
1.533,   4.718e-3
1.534,   4.775e-3
1.535,   4.835e-3
1.536,   4.891e-3
1.537,   4.948e-3
1.538,   5.008e-3
1.539,   5.070e-3
1.540,   5.129e-3
1.541,   5.188e-3
1.542,   5.249e-3
1.543,   5.309e-3
1.544,   5.370e-3
1.545,   5.433e-3
1.546,   5.491e-3
1.547,   5.551e-3
1.548,   5.612e-3
1.549,   5.675e-3
1.550,   5.735e-3
1.551,   5.796e-3
1.552,   5.858e-3
1.553,   5.919e-3
1.554,   5.977e-3
1.555,   6.042e-3
1.556,   6.103e-3
1.557,   6.165e-3
1.558,   6.229e-3
1.559,   6.291e-3
1.560,   6.349e-3
1.561,   6.411e-3
1.562,   6.475e-3
1.563,   6.538e-3
1.564,   6.596e-3
1.565,   6.658e-3
1.566,   6.718e-3
1.567,   6.780e-3
1.568,   6.842e-3
1.569,   6.903e-3
1.570,   6.964e-3
1.571,   7.024e-3
1.572,   7.083e-3
1.573,   7.145e-3
1.574,   7.204e-3
1.575,   7.261e-3
1.576,   7.319e-3
1.577,   7.375e-3
1.578,   7.434e-3
1.579,   7.495e-3
1.580,   7.554e-3
1.581,   7.612e-3
1.582,   7.671e-3
1.583,   7.727e-3
1.584,   7.784e-3
1.585,   7.844e-3
1.586,   7.901e-3
1.587,   7.957e-3
1.588,   8.014e-3
1.589,   8.067e-3
1.590,   8.122e-3
1.591,   8.177e-3
1.592,   8.230e-3
1.593,   8.284e-3
1.594,   8.340e-3
1.595,   8.393e-3
1.596,   8.446e-3
1.597,   8.502e-3
1.598,   8.555e-3
1.599,   8.605e-3
1.600,   8.655e-3
1.601,   8.706e-3
1.602,   8.756e-3
1.603,   8.805e-3
1.604,   8.852e-3
1.605,   8.899e-3
1.606,   8.947e-3
1.607,   8.999e-3
1.608,   9.048e-3
1.609,   9.093e-3
1.610,   9.140e-3
1.611,   9.184e-3
1.612,   9.227e-3
1.613,   9.272e-3
1.614,   9.312e-3
1.615,   9.356e-3
1.616,   9.402e-3
1.617,   9.440e-3
1.618,   9.480e-3
1.619,   9.516e-3
1.620,   9.553e-3
1.621,   9.590e-3
1.622,   9.630e-3
1.623,   9.660e-3
1.624,   9.693e-3
1.625,   9.724e-3
1.626,   9.758e-3
1.627,   9.795e-3
1.628,   9.829e-3
1.629,   9.863e-3