File: Experimental Records and Raw Data/batch1/final500/B1_VARIANCE_500_#12_High_Quality-250mV.txt
Dec. 12, 2022   15:24:11
Linear Sweep Voltammetry
File: d:\current work\al_oer\electrochemical test data\batch 1\500\B1_VARIANCE_500_#12_High_Quality-250mV.txt
Data Source:  Experiment
Instrument Model:  CHI660E
Header:
Note:

Init E (V) = 1.096

Final E (V) = 1.529

Scan Rate (V/s) = 0.010
Sample Interval (V) = 0.001
Quiet Time (sec) = 2
Sensitivity (A/V) = 0.001
Comp R (ohm) = 6.2

Results:

Channel 1:

Potential/V, Current/A
1.096,   6.695e-5
1.097,   6.932e-5
1.098,   6.609e-5
1.099,   6.270e-5
1.100,   5.985e-5
1.101,   5.718e-5
1.102,   5.482e-5
1.103,   5.283e-5
1.104,   5.093e-5
1.105,   4.923e-5
1.106,   4.776e-5
1.107,   4.629e-5
1.108,   4.520e-5
1.109,   4.411e-5
1.110,   4.324e-5
1.111,   4.236e-5
1.112,   4.144e-5
1.113,   4.072e-5
1.114,   4.009e-5
1.115,   3.943e-5
1.116,   3.898e-5
1.117,   3.851e-5
1.118,   3.787e-5
1.119,   3.751e-5
1.120,   3.713e-5
1.121,   3.670e-5
1.122,   3.637e-5
1.123,   3.596e-5
1.124,   3.576e-5
1.125,   3.554e-5
1.126,   3.519e-5
1.127,   3.506e-5
1.128,   3.470e-5
1.129,   3.456e-5
1.130,   3.448e-5
1.131,   3.416e-5
1.132,   3.409e-5
1.133,   3.390e-5
1.134,   3.372e-5
1.135,   3.371e-5
1.136,   3.352e-5
1.137,   3.344e-5
1.138,   3.347e-5
1.139,   3.331e-5
1.140,   3.332e-5
1.141,   3.331e-5
1.142,   3.335e-5
1.143,   3.355e-5
1.144,   3.337e-5
1.145,   3.342e-5
1.146,   3.337e-5
1.147,   3.321e-5
1.148,   3.337e-5
1.149,   3.340e-5
1.150,   3.334e-5
1.151,   3.345e-5
1.152,   3.337e-5
1.153,   3.353e-5
1.154,   3.361e-5
1.155,   3.367e-5
1.156,   3.378e-5
1.157,   3.381e-5
1.158,   3.391e-5
1.159,   3.402e-5
1.160,   3.403e-5
1.161,   3.421e-5
1.162,   3.442e-5
1.163,   3.444e-5
1.164,   3.467e-5
1.165,   3.479e-5
1.166,   3.492e-5
1.167,   3.518e-5
1.168,   3.524e-5
1.169,   3.534e-5
1.170,   3.564e-5
1.171,   3.568e-5
1.172,   3.588e-5
1.173,   3.598e-5
1.174,   3.629e-5
1.175,   3.662e-5
1.176,   3.654e-5
1.177,   3.672e-5
1.178,   3.718e-5
1.179,   3.696e-5
1.180,   3.743e-5
1.181,   3.785e-5
1.182,   3.785e-5
1.183,   3.811e-5
1.184,   3.820e-5
1.185,   3.838e-5
1.186,   3.886e-5
1.187,   3.899e-5
1.188,   3.894e-5
1.189,   3.947e-5
1.190,   3.967e-5
1.191,   3.985e-5
1.192,   3.984e-5
1.193,   4.079e-5
1.194,   4.058e-5
1.195,   4.052e-5
1.196,   4.168e-5
1.197,   4.216e-5
1.198,   4.255e-5
1.199,   4.212e-5
1.200,   4.229e-5
1.201,   4.226e-5
1.202,   4.204e-5
1.203,   4.171e-5
1.204,   4.219e-5
1.205,   4.221e-5
1.206,   4.343e-5
1.207,   4.258e-5
1.208,   4.267e-5
1.209,   4.299e-5
1.210,   4.325e-5
1.211,   4.366e-5
1.212,   4.349e-5
1.213,   4.310e-5
1.214,   4.337e-5
1.215,   4.571e-5
1.216,   4.377e-5
1.217,   4.301e-5
1.218,   4.283e-5
1.219,   4.468e-5
1.220,   4.571e-5
1.221,   4.674e-5
1.222,   4.554e-5
1.223,   4.550e-5
1.224,   4.361e-5
1.225,   4.351e-5
1.226,   4.324e-5
1.227,   4.248e-5
1.228,   4.320e-5
1.229,   4.282e-5
1.230,   4.265e-5
1.231,   4.345e-5
1.232,   4.299e-5
1.233,   4.286e-5
1.234,   4.324e-5
1.235,   4.306e-5
1.236,   4.285e-5
1.237,   4.348e-5
1.238,   4.366e-5
1.239,   4.365e-5
1.240,   4.389e-5
1.241,   4.469e-5
1.242,   4.477e-5
1.243,   4.495e-5
1.244,   4.571e-5
1.245,   4.602e-5
1.246,   4.552e-5
1.247,   4.635e-5
1.248,   4.581e-5
1.249,   4.558e-5
1.250,   4.604e-5
1.251,   4.533e-5
1.252,   4.488e-5
1.253,   4.492e-5
1.254,   4.397e-5
1.255,   4.374e-5
1.256,   4.363e-5
1.257,   4.294e-5
1.258,   4.381e-5
1.259,   4.387e-5
1.260,   4.489e-5
1.261,   4.650e-5
1.262,   4.649e-5
1.263,   4.730e-5
1.264,   4.512e-5
1.265,   4.447e-5
1.266,   4.308e-5
1.267,   4.479e-5
1.268,   4.565e-5
1.269,   4.653e-5
1.270,   4.402e-5
1.271,   4.418e-5
1.272,   4.447e-5
1.273,   4.598e-5
1.274,   4.465e-5
1.275,   4.318e-5
1.276,   4.590e-5
1.277,   4.456e-5
1.278,   4.333e-5
1.279,   4.549e-5
1.280,   4.414e-5
1.281,   4.352e-5
1.282,   4.523e-5
1.283,   4.409e-5
1.284,   4.415e-5
1.285,   4.364e-5
1.286,   4.428e-5
1.287,   4.441e-5
1.288,   4.381e-5
1.289,   4.365e-5
1.290,   4.356e-5
1.291,   4.360e-5
1.292,   4.371e-5
1.293,   4.374e-5
1.294,   4.350e-5
1.295,   4.381e-5
1.296,   4.354e-5
1.297,   4.310e-5
1.298,   4.333e-5
1.299,   4.325e-5
1.300,   4.308e-5
1.301,   4.312e-5
1.302,   4.289e-5
1.303,   4.275e-5
1.304,   4.254e-5
1.305,   4.276e-5
1.306,   4.290e-5
1.307,   4.303e-5
1.308,   4.301e-5
1.309,   4.277e-5
1.310,   4.231e-5
1.311,   4.250e-5
1.312,   4.274e-5
1.313,   4.302e-5
1.314,   4.272e-5
1.315,   4.208e-5
1.316,   4.259e-5
1.317,   4.277e-5
1.318,   4.212e-5
1.319,   4.231e-5
1.320,   4.268e-5
1.321,   4.227e-5
1.322,   4.244e-5
1.323,   4.269e-5
1.324,   4.187e-5
1.325,   4.244e-5
1.326,   4.224e-5
1.327,   4.202e-5
1.328,   4.266e-5
1.329,   4.185e-5
1.330,   4.280e-5
1.331,   4.202e-5
1.332,   4.256e-5
1.333,   4.169e-5
1.334,   4.229e-5
1.335,   4.197e-5
1.336,   4.270e-5
1.337,   4.213e-5
1.338,   4.246e-5
1.339,   4.144e-5
1.340,   4.261e-5
1.341,   4.236e-5
1.342,   4.282e-5
1.343,   4.198e-5
1.344,   4.233e-5
1.345,   4.268e-5
1.346,   4.265e-5
1.347,   4.270e-5
1.348,   4.200e-5
1.349,   4.308e-5
1.350,   4.279e-5
1.351,   4.276e-5
1.352,   4.246e-5
1.353,   4.286e-5
1.354,   4.367e-5
1.355,   4.245e-5
1.356,   4.308e-5
1.357,   4.322e-5
1.358,   4.365e-5
1.359,   4.351e-5
1.360,   4.302e-5
1.361,   4.393e-5
1.362,   4.376e-5
1.363,   4.435e-5
1.364,   4.361e-5
1.365,   4.434e-5
1.366,   4.399e-5
1.367,   4.518e-5
1.368,   4.469e-5
1.369,   4.545e-5
1.370,   4.493e-5
1.371,   4.577e-5
1.372,   4.554e-5
1.373,   4.626e-5
1.374,   4.636e-5
1.375,   4.635e-5
1.376,   4.738e-5
1.377,   4.755e-5
1.378,   4.750e-5
1.379,   4.849e-5
1.380,   4.915e-5
1.381,   4.922e-5
1.382,   4.930e-5
1.383,   5.010e-5
1.384,   5.093e-5
1.385,   5.163e-5
1.386,   5.239e-5
1.387,   5.297e-5
1.388,   5.402e-5
1.389,   5.480e-5
1.390,   5.566e-5
1.391,   5.770e-5
1.392,   5.733e-5
1.393,   5.832e-5
1.394,   6.190e-5
1.395,   6.131e-5
1.396,   6.167e-5
1.397,   6.219e-5
1.398,   6.440e-5
1.399,   6.525e-5
1.400,   6.654e-5
1.401,   6.974e-5
1.402,   7.630e-5
1.403,   7.800e-5
1.404,   7.477e-5
1.405,   8.453e-5
1.406,   8.045e-5
1.407,   8.899e-5
1.408,   9.011e-5
1.409,   9.125e-5
1.410,   9.547e-5
1.411,   9.964e-5
1.412,   1.040e-4
1.413,   1.090e-4
1.414,   1.125e-4
1.415,   1.138e-4
1.416,   1.228e-4
1.417,   1.239e-4
1.418,   1.331e-4
1.419,   1.330e-4
1.420,   1.413e-4
1.421,   1.483e-4
1.422,   1.538e-4
1.423,   1.594e-4
1.424,   1.649e-4
1.425,   1.724e-4
1.426,   1.835e-4
1.427,   1.880e-4
1.428,   1.939e-4
1.429,   2.075e-4
1.430,   2.115e-4
1.431,   2.222e-4
1.432,   2.356e-4
1.433,   2.422e-4
1.434,   2.509e-4
1.435,   2.627e-4
1.436,   2.756e-4
1.437,   2.882e-4
1.438,   3.009e-4
1.439,   3.156e-4
1.440,   3.290e-4
1.441,   3.407e-4
1.442,   3.532e-4
1.443,   3.741e-4
1.444,   3.934e-4
1.445,   4.030e-4
1.446,   4.264e-4
1.447,   4.484e-4
1.448,   4.596e-4
1.449,   4.922e-4
1.450,   5.039e-4
1.451,   5.359e-4
1.452,   5.531e-4
1.453,   5.848e-4
1.454,   6.065e-4
1.455,   6.392e-4
1.456,   6.643e-4
1.457,   7.000e-4
1.458,   7.281e-4
1.459,   7.662e-4
1.460,   7.971e-4
1.461,   8.387e-4
1.462,   8.738e-4
1.463,   9.168e-4
1.464,   9.574e-4
1.465,   1.001e-3
1.466,   1.050e-3
1.467,   1.092e-3
1.468,   1.149e-3
1.469,   1.190e-3
1.470,   1.254e-3
1.471,   1.302e-3
1.472,   1.362e-3
1.473,   1.426e-3
1.474,   1.479e-3
1.475,   1.551e-3
1.476,   1.617e-3
1.477,   1.679e-3
1.478,   1.758e-3
1.479,   1.832e-3
1.480,   1.902e-3
1.481,   1.984e-3
1.482,   2.067e-3
1.483,   2.144e-3
1.484,   2.228e-3
1.485,   2.320e-3
1.486,   2.411e-3
1.487,   2.504e-3
1.488,   2.627e-3
1.489,   2.752e-3
1.490,   2.879e-3
1.491,   3.007e-3
1.492,   3.141e-3
1.493,   3.279e-3
1.494,   3.415e-3
1.495,   3.561e-3
1.496,   3.704e-3
1.497,   3.857e-3
1.498,   4.009e-3
1.499,   4.165e-3
1.500,   4.330e-3
1.501,   4.500e-3
1.502,   4.658e-3
1.503,   4.815e-3
1.504,   4.972e-3
1.505,   5.106e-3
1.506,   5.243e-3
1.507,   5.407e-3
1.508,   5.597e-3
1.509,   5.767e-3
1.510,   5.992e-3
1.511,   6.181e-3
1.512,   6.408e-3
1.513,   6.575e-3
1.514,   7.021e-3
1.515,   7.470e-3
1.516,   7.762e-3
1.517,   8.103e-3
1.518,   8.277e-3
1.519,   8.391e-3
1.520,   8.557e-3
1.521,   8.917e-3
1.522,   9.160e-3
1.523,   9.300e-3
1.524,   9.430e-3
1.525,   9.499e-3
1.526,   9.630e-3
1.527,   9.865e-3
1.528,   1.003e-2
1.529,   1.006e-2