File: Experimental Records and Raw Data/batch1/final500/B1_VARIANCE_500_#13_High_Quality-239mV.txt
Dec. 12, 2022   15:19:35
Linear Sweep Voltammetry
File: d:\current work\al_oer\electrochemical test data\batch 1\500\B1_VARIANCE_500_#13_High_Quality-239mV.txt
Data Source:  Experiment
Instrument Model:  CHI660E
Header:
Note:

Init E (V) = 1.093

Final E (V) = 1.515

Scan Rate (V/s) = 0.010
Sample Interval (V) = 0.001
Quiet Time (sec) = 2
Sensitivity (A/V) = 0.001
Comp R (ohm) = 6.2

Results:

Channel 1:

Potential/V, Current/A
1.093,   8.547e-5
1.094,   8.793e-5
1.095,   8.405e-5
1.096,   8.000e-5
1.097,   7.656e-5
1.098,   7.321e-5
1.099,   7.042e-5
1.100,   6.782e-5
1.101,   6.534e-5
1.102,   6.321e-5
1.103,   6.116e-5
1.104,   5.931e-5
1.105,   5.782e-5
1.106,   5.634e-5
1.107,   5.507e-5
1.108,   5.396e-5
1.109,   5.274e-5
1.110,   5.186e-5
1.111,   5.103e-5
1.112,   4.996e-5
1.113,   4.924e-5
1.114,   4.857e-5
1.115,   4.771e-5
1.116,   4.714e-5
1.117,   4.640e-5
1.118,   4.585e-5
1.119,   4.539e-5
1.120,   4.482e-5
1.121,   4.442e-5
1.122,   4.403e-5
1.123,   4.355e-5
1.124,   4.326e-5
1.125,   4.289e-5
1.126,   4.273e-5
1.127,   4.254e-5
1.128,   4.203e-5
1.129,   4.212e-5
1.130,   4.181e-5
1.131,   4.151e-5
1.132,   4.140e-5
1.133,   4.111e-5
1.134,   4.090e-5
1.135,   4.081e-5
1.136,   4.061e-5
1.137,   4.056e-5
1.138,   4.040e-5
1.139,   4.041e-5
1.140,   4.039e-5
1.141,   4.010e-5
1.142,   4.004e-5
1.143,   4.019e-5
1.144,   4.003e-5
1.145,   4.011e-5
1.146,   4.014e-5
1.147,   4.005e-5
1.148,   4.022e-5
1.149,   4.014e-5
1.150,   4.017e-5
1.151,   4.034e-5
1.152,   4.040e-5
1.153,   4.036e-5
1.154,   4.049e-5
1.155,   4.050e-5
1.156,   4.064e-5
1.157,   4.057e-5
1.158,   4.068e-5
1.159,   4.075e-5
1.160,   4.081e-5
1.161,   4.098e-5
1.162,   4.117e-5
1.163,   4.100e-5
1.164,   4.127e-5
1.165,   4.153e-5
1.166,   4.158e-5
1.167,   4.181e-5
1.168,   4.192e-5
1.169,   4.224e-5
1.170,   4.189e-5
1.171,   4.253e-5
1.172,   4.238e-5
1.173,   4.304e-5
1.174,   4.287e-5
1.175,   4.287e-5
1.176,   4.354e-5
1.177,   4.338e-5
1.178,   4.361e-5
1.179,   4.435e-5
1.180,   4.477e-5
1.181,   4.461e-5
1.182,   4.554e-5
1.183,   4.549e-5
1.184,   4.518e-5
1.185,   4.544e-5
1.186,   4.650e-5
1.187,   4.571e-5
1.188,   4.436e-5
1.189,   4.648e-5
1.190,   4.657e-5
1.191,   4.589e-5
1.192,   4.491e-5
1.193,   4.532e-5
1.194,   4.749e-5
1.195,   4.839e-5
1.196,   4.878e-5
1.197,   5.004e-5
1.198,   4.956e-5
1.199,   5.007e-5
1.200,   5.034e-5
1.201,   4.946e-5
1.202,   4.722e-5
1.203,   4.530e-5
1.204,   4.610e-5
1.205,   4.989e-5
1.206,   5.216e-5
1.207,   4.802e-5
1.208,   4.598e-5
1.209,   5.194e-5
1.210,   5.031e-5
1.211,   4.620e-5
1.212,   5.301e-5
1.213,   4.790e-5
1.214,   5.006e-5
1.215,   5.143e-5
1.216,   4.825e-5
1.217,   5.293e-5
1.218,   4.827e-5
1.219,   5.279e-5
1.220,   4.891e-5
1.221,   5.178e-5
1.222,   5.106e-5
1.223,   4.996e-5
1.224,   5.361e-5
1.225,   4.810e-5
1.226,   5.407e-5
1.227,   5.066e-5
1.228,   5.001e-5
1.229,   5.463e-5
1.230,   4.953e-5
1.231,   5.147e-5
1.232,   5.411e-5
1.233,   4.964e-5
1.234,   5.183e-5
1.235,   5.430e-5
1.236,   4.989e-5
1.237,   5.151e-5
1.238,   5.455e-5
1.239,   5.031e-5
1.240,   5.086e-5
1.241,   5.492e-5
1.242,   5.068e-5
1.243,   5.040e-5
1.244,   5.509e-5
1.245,   5.102e-5
1.246,   5.009e-5
1.247,   5.508e-5
1.248,   5.099e-5
1.249,   5.023e-5
1.250,   5.497e-5
1.251,   5.015e-5
1.252,   5.105e-5
1.253,   5.456e-5
1.254,   4.909e-5
1.255,   5.326e-5
1.256,   5.235e-5
1.257,   4.951e-5
1.258,   5.473e-5
1.259,   4.862e-5
1.260,   5.368e-5
1.261,   5.111e-5
1.262,   5.098e-5
1.263,   5.294e-5
1.264,   4.900e-5
1.265,   5.419e-5
1.266,   4.850e-5
1.267,   5.422e-5
1.268,   4.838e-5
1.269,   5.371e-5
1.270,   4.886e-5
1.271,   5.258e-5
1.272,   5.091e-5
1.273,   4.954e-5
1.274,   5.394e-5
1.275,   4.710e-5
1.276,   5.358e-5
1.277,   5.016e-5
1.278,   4.819e-5
1.279,   5.418e-5
1.280,   4.899e-5
1.281,   4.816e-5
1.282,   5.362e-5
1.283,   5.064e-5
1.284,   4.671e-5
1.285,   5.051e-5
1.286,   5.348e-5
1.287,   4.991e-5
1.288,   4.636e-5
1.289,   4.813e-5
1.290,   5.159e-5
1.291,   5.296e-5
1.292,   5.123e-5
1.293,   4.816e-5
1.294,   4.640e-5
1.295,   4.654e-5
1.296,   4.769e-5
1.297,   4.887e-5
1.298,   4.924e-5
1.299,   5.019e-5
1.300,   5.116e-5
1.301,   5.031e-5
1.302,   5.037e-5
1.303,   5.082e-5
1.304,   4.924e-5
1.305,   4.914e-5
1.306,   4.847e-5
1.307,   4.669e-5
1.308,   4.721e-5
1.309,   4.633e-5
1.310,   4.826e-5
1.311,   4.922e-5
1.312,   5.007e-5
1.313,   4.937e-5
1.314,   4.772e-5
1.315,   4.668e-5
1.316,   4.842e-5
1.317,   4.890e-5
1.318,   4.936e-5
1.319,   4.661e-5
1.320,   4.832e-5
1.321,   4.873e-5
1.322,   4.771e-5
1.323,   4.760e-5
1.324,   4.804e-5
1.325,   4.838e-5
1.326,   4.750e-5
1.327,   4.782e-5
1.328,   4.789e-5
1.329,   4.794e-5
1.330,   4.787e-5
1.331,   4.709e-5
1.332,   4.866e-5
1.333,   4.787e-5
1.334,   4.688e-5
1.335,   4.784e-5
1.336,   4.787e-5
1.337,   4.850e-5
1.338,   4.722e-5
1.339,   4.750e-5
1.340,   4.771e-5
1.341,   4.839e-5
1.342,   4.801e-5
1.343,   4.800e-5
1.344,   4.748e-5
1.345,   4.798e-5
1.346,   4.794e-5
1.347,   4.853e-5
1.348,   4.845e-5
1.349,   4.826e-5
1.350,   4.785e-5
1.351,   4.818e-5
1.352,   4.821e-5
1.353,   4.867e-5
1.354,   4.880e-5
1.355,   4.912e-5
1.356,   4.891e-5
1.357,   4.879e-5
1.358,   4.874e-5
1.359,   4.916e-5
1.360,   4.954e-5
1.361,   5.000e-5
1.362,   5.004e-5
1.363,   4.988e-5
1.364,   4.985e-5
1.365,   5.013e-5
1.366,   5.108e-5
1.367,   5.154e-5
1.368,   5.098e-5
1.369,   5.149e-5
1.370,   5.170e-5
1.371,   5.353e-5
1.372,   5.252e-5
1.373,   5.262e-5
1.374,   5.464e-5
1.375,   5.396e-5
1.376,   5.416e-5
1.377,   5.690e-5
1.378,   5.560e-5
1.379,   5.540e-5
1.380,   5.858e-5
1.381,   5.939e-5
1.382,   6.103e-5
1.383,   5.956e-5
1.384,   6.012e-5
1.385,   6.047e-5
1.386,   6.099e-5
1.387,   6.268e-5
1.388,   6.441e-5
1.389,   6.696e-5
1.390,   7.130e-5
1.391,   7.479e-5
1.392,   7.256e-5
1.393,   7.174e-5
1.394,   8.000e-5
1.395,   7.812e-5
1.396,   8.156e-5
1.397,   8.432e-5
1.398,   8.836e-5
1.399,   8.690e-5
1.400,   9.442e-5
1.401,   9.777e-5
1.402,   9.919e-5
1.403,   1.028e-4
1.404,   1.069e-4
1.405,   1.121e-4
1.406,   1.164e-4
1.407,   1.191e-4
1.408,   1.234e-4
1.409,   1.331e-4
1.410,   1.343e-4
1.411,   1.421e-4
1.412,   1.464e-4
1.413,   1.563e-4
1.414,   1.597e-4
1.415,   1.661e-4
1.416,   1.740e-4
1.417,   1.824e-4
1.418,   1.911e-4
1.419,   2.003e-4
1.420,   2.099e-4
1.421,   2.150e-4
1.422,   2.260e-4
1.423,   2.401e-4
1.424,   2.442e-4
1.425,   2.614e-4
1.426,   2.702e-4
1.427,   2.796e-4
1.428,   2.965e-4
1.429,   3.108e-4
1.430,   3.234e-4
1.431,   3.374e-4
1.432,   3.524e-4
1.433,   3.676e-4
1.434,   3.837e-4
1.435,   3.996e-4
1.436,   4.216e-4
1.437,   4.434e-4
1.438,   4.582e-4
1.439,   4.779e-4
1.440,   5.082e-4
1.441,   5.210e-4
1.442,   5.537e-4
1.443,   5.740e-4
1.444,   6.044e-4
1.445,   6.288e-4
1.446,   6.640e-4
1.447,   6.872e-4
1.448,   7.307e-4
1.449,   7.549e-4
1.450,   7.977e-4
1.451,   8.352e-4
1.452,   8.678e-4
1.453,   9.196e-4
1.454,   9.566e-4
1.455,   9.997e-4
1.456,   1.057e-3
1.457,   1.100e-3
1.458,   1.150e-3
1.459,   1.214e-3
1.460,   1.262e-3
1.461,   1.322e-3
1.462,   1.392e-3
1.463,   1.448e-3
1.464,   1.519e-3
1.465,   1.595e-3
1.466,   1.657e-3
1.467,   1.741e-3
1.468,   1.819e-3
1.469,   1.895e-3
1.470,   1.991e-3
1.471,   2.069e-3
1.472,   2.161e-3
1.473,   2.260e-3
1.474,   2.346e-3
1.475,   2.454e-3
1.476,   2.556e-3
1.477,   2.668e-3
1.478,   2.813e-3
1.479,   2.944e-3
1.480,   3.090e-3
1.481,   3.240e-3
1.482,   3.389e-3
1.483,   3.542e-3
1.484,   3.702e-3
1.485,   3.867e-3
1.486,   4.030e-3
1.487,   4.195e-3
1.488,   4.366e-3
1.489,   4.550e-3
1.490,   4.730e-3
1.491,   4.918e-3
1.492,   5.092e-3
1.493,   5.266e-3
1.494,   5.411e-3
1.495,   5.651e-3
1.496,   6.155e-3
1.497,   6.398e-3
1.498,   6.620e-3
1.499,   6.815e-3
1.500,   7.016e-3
1.501,   7.200e-3
1.502,   7.387e-3
1.503,   7.569e-3
1.504,   7.953e-3
1.505,   8.226e-3
1.506,   8.422e-3
1.507,   8.609e-3
1.508,   8.740e-3
1.509,   8.805e-3
1.510,   8.931e-3
1.511,   9.970e-3
1.512,   1.006e-2
1.513,   1.006e-2
1.514,   1.006e-2
1.515,   1.006e-2