File: Experimental Records and Raw Data/batch1/final500/B1_VARIANCE_500_#5_Full-253mV.txt
Dec. 14, 2022   13:55:20
Linear Sweep Voltammetry
File: d:\current work\al_oer\electrochemical test data\batch 1\500\B1_VARIANCE_500_#5_Full-253mV.txt
Data Source:  Experiment
Instrument Model:  CHI660E
Header:
Note:

Init E (V) = 1.094

Final E (V) = 1.581

Scan Rate (V/s) = 0.010
Sample Interval (V) = 0.001
Quiet Time (sec) = 2
Sensitivity (A/V) = 0.001
Comp R (ohm) = 5.8

Results:

Channel 1:

Potential/V, Current/A
1.094,   1.512e-4
1.095,   1.450e-4
1.096,   1.364e-4
1.097,   1.280e-4
1.098,   1.207e-4
1.099,   1.141e-4
1.100,   1.084e-4
1.101,   1.035e-4
1.102,   9.899e-5
1.103,   9.510e-5
1.104,   9.167e-5
1.105,   8.841e-5
1.106,   8.567e-5
1.107,   8.307e-5
1.108,   8.084e-5
1.109,   7.884e-5
1.110,   7.691e-5
1.111,   7.514e-5
1.112,   7.359e-5
1.113,   7.216e-5
1.114,   7.090e-5
1.115,   6.975e-5
1.116,   6.854e-5
1.117,   6.760e-5
1.118,   6.659e-5
1.119,   6.579e-5
1.120,   6.500e-5
1.121,   6.427e-5
1.122,   6.362e-5
1.123,   6.295e-5
1.124,   6.239e-5
1.125,   6.192e-5
1.126,   6.135e-5
1.127,   6.096e-5
1.128,   6.059e-5
1.129,   6.011e-5
1.130,   5.980e-5
1.131,   5.947e-5
1.132,   5.920e-5
1.133,   5.894e-5
1.134,   5.869e-5
1.135,   5.848e-5
1.136,   5.825e-5
1.137,   5.805e-5
1.138,   5.786e-5
1.139,   5.772e-5
1.140,   5.763e-5
1.141,   5.757e-5
1.142,   5.741e-5
1.143,   5.736e-5
1.144,   5.729e-5
1.145,   5.715e-5
1.146,   5.715e-5
1.147,   5.711e-5
1.148,   5.705e-5
1.149,   5.702e-5
1.150,   5.696e-5
1.151,   5.699e-5
1.152,   5.697e-5
1.153,   5.707e-5
1.154,   5.707e-5
1.155,   5.697e-5
1.156,   5.697e-5
1.157,   5.705e-5
1.158,   5.696e-5
1.159,   5.708e-5
1.160,   5.713e-5
1.161,   5.712e-5
1.162,   5.722e-5
1.163,   5.725e-5
1.164,   5.725e-5
1.165,   5.745e-5
1.166,   5.748e-5
1.167,   5.755e-5
1.168,   5.763e-5
1.169,   5.758e-5
1.170,   5.771e-5
1.171,   5.775e-5
1.172,   5.786e-5
1.173,   5.796e-5
1.174,   5.794e-5
1.175,   5.811e-5
1.176,   5.815e-5
1.177,   5.814e-5
1.178,   5.829e-5
1.179,   5.845e-5
1.180,   5.848e-5
1.181,   5.862e-5
1.182,   5.861e-5
1.183,   5.876e-5
1.184,   5.882e-5
1.185,   5.889e-5
1.186,   5.900e-5
1.187,   5.902e-5
1.188,   5.913e-5
1.189,   5.930e-5
1.190,   5.929e-5
1.191,   5.943e-5
1.192,   5.956e-5
1.193,   5.955e-5
1.194,   5.974e-5
1.195,   5.978e-5
1.196,   5.986e-5
1.197,   6.004e-5
1.198,   6.002e-5
1.199,   6.017e-5
1.200,   6.029e-5
1.201,   6.032e-5
1.202,   6.045e-5
1.203,   6.050e-5
1.204,   6.063e-5
1.205,   6.076e-5
1.206,   6.077e-5
1.207,   6.093e-5
1.208,   6.097e-5
1.209,   6.101e-5
1.210,   6.120e-5
1.211,   6.125e-5
1.212,   6.128e-5
1.213,   6.144e-5
1.214,   6.150e-5
1.215,   6.154e-5
1.216,   6.160e-5
1.217,   6.174e-5
1.218,   6.181e-5
1.219,   6.184e-5
1.220,   6.194e-5
1.221,   6.206e-5
1.222,   6.204e-5
1.223,   6.216e-5
1.224,   6.230e-5
1.225,   6.225e-5
1.226,   6.245e-5
1.227,   6.238e-5
1.228,   6.244e-5
1.229,   6.258e-5
1.230,   6.261e-5
1.231,   6.269e-5
1.232,   6.276e-5
1.233,   6.267e-5
1.234,   6.277e-5
1.235,   6.282e-5
1.236,   6.289e-5
1.237,   6.299e-5
1.238,   6.289e-5
1.239,   6.298e-5
1.240,   6.305e-5
1.241,   6.297e-5
1.242,   6.311e-5
1.243,   6.313e-5
1.244,   6.313e-5
1.245,   6.320e-5
1.246,   6.311e-5
1.247,   6.316e-5
1.248,   6.318e-5
1.249,   6.321e-5
1.250,   6.329e-5
1.251,   6.322e-5
1.252,   6.321e-5
1.253,   6.326e-5
1.254,   6.319e-5
1.255,   6.332e-5
1.256,   6.336e-5
1.257,   6.319e-5
1.258,   6.325e-5
1.259,   6.322e-5
1.260,   6.313e-5
1.261,   6.329e-5
1.262,   6.322e-5
1.263,   6.329e-5
1.264,   6.329e-5
1.265,   6.319e-5
1.266,   6.326e-5
1.267,   6.319e-5
1.268,   6.332e-5
1.269,   6.332e-5
1.270,   6.314e-5
1.271,   6.325e-5
1.272,   6.326e-5
1.273,   6.319e-5
1.274,   6.324e-5
1.275,   6.322e-5
1.276,   6.325e-5
1.277,   6.330e-5
1.278,   6.322e-5
1.279,   6.325e-5
1.280,   6.324e-5
1.281,   6.337e-5
1.282,   6.336e-5
1.283,   6.328e-5
1.284,   6.336e-5
1.285,   6.341e-5
1.286,   6.322e-5
1.287,   6.334e-5
1.288,   6.346e-5
1.289,   6.332e-5
1.290,   6.346e-5
1.291,   6.345e-5
1.292,   6.346e-5
1.293,   6.360e-5
1.294,   6.357e-5
1.295,   6.364e-5
1.296,   6.363e-5
1.297,   6.358e-5
1.298,   6.375e-5
1.299,   6.369e-5
1.300,   6.377e-5
1.301,   6.392e-5
1.302,   6.382e-5
1.303,   6.399e-5
1.304,   6.404e-5
1.305,   6.399e-5
1.306,   6.416e-5
1.307,   6.429e-5
1.308,   6.425e-5
1.309,   6.438e-5
1.310,   6.434e-5
1.311,   6.453e-5
1.312,   6.464e-5
1.313,   6.458e-5
1.314,   6.467e-5
1.315,   6.476e-5
1.316,   6.485e-5
1.317,   6.505e-5
1.318,   6.498e-5
1.319,   6.533e-5
1.320,   6.559e-5
1.321,   6.542e-5
1.322,   6.557e-5
1.323,   6.566e-5
1.324,   6.576e-5
1.325,   6.599e-5
1.326,   6.602e-5
1.327,   6.621e-5
1.328,   6.645e-5
1.329,   6.651e-5
1.330,   6.670e-5
1.331,   6.679e-5
1.332,   6.707e-5
1.333,   6.730e-5
1.334,   6.736e-5
1.335,   6.766e-5
1.336,   6.784e-5
1.337,   6.795e-5
1.338,   6.828e-5
1.339,   6.849e-5
1.340,   6.871e-5
1.341,   6.906e-5
1.342,   6.922e-5
1.343,   6.953e-5
1.344,   6.981e-5
1.345,   7.018e-5
1.346,   7.047e-5
1.347,   7.064e-5
1.348,   7.094e-5
1.349,   7.140e-5
1.350,   7.154e-5
1.351,   7.199e-5
1.352,   7.235e-5
1.353,   7.257e-5
1.354,   7.305e-5
1.355,   7.343e-5
1.356,   7.378e-5
1.357,   7.427e-5
1.358,   7.465e-5
1.359,   7.506e-5
1.360,   7.539e-5
1.361,   7.583e-5
1.362,   7.641e-5
1.363,   7.682e-5
1.364,   7.735e-5
1.365,   7.782e-5
1.366,   7.806e-5
1.367,   7.882e-5
1.368,   7.936e-5
1.369,   7.972e-5
1.370,   8.045e-5
1.371,   8.101e-5
1.372,   8.152e-5
1.373,   8.211e-5
1.374,   8.257e-5
1.375,   8.329e-5
1.376,   8.394e-5
1.377,   8.454e-5
1.378,   8.531e-5
1.379,   8.590e-5
1.380,   8.656e-5
1.381,   8.741e-5
1.382,   8.802e-5
1.383,   8.901e-5
1.384,   8.989e-5
1.385,   9.056e-5
1.386,   9.156e-5
1.387,   9.243e-5
1.388,   9.339e-5
1.389,   9.455e-5
1.390,   9.552e-5
1.391,   9.669e-5
1.392,   9.796e-5
1.393,   9.924e-5
1.394,   1.007e-4
1.395,   1.020e-4
1.396,   1.038e-4
1.397,   1.055e-4
1.398,   1.070e-4
1.399,   1.090e-4
1.400,   1.108e-4
1.401,   1.127e-4
1.402,   1.151e-4
1.403,   1.174e-4
1.404,   1.199e-4
1.405,   1.226e-4
1.406,   1.253e-4
1.407,   1.283e-4
1.408,   1.316e-4
1.409,   1.350e-4
1.410,   1.387e-4
1.411,   1.424e-4
1.412,   1.466e-4
1.413,   1.510e-4
1.414,   1.554e-4
1.415,   1.605e-4
1.416,   1.659e-4
1.417,   1.712e-4
1.418,   1.772e-4
1.419,   1.833e-4
1.420,   1.899e-4
1.421,   1.966e-4
1.422,   2.040e-4
1.423,   2.119e-4
1.424,   2.200e-4
1.425,   2.284e-4
1.426,   2.375e-4
1.427,   2.469e-4
1.428,   2.571e-4
1.429,   2.678e-4
1.430,   2.786e-4
1.431,   2.903e-4
1.432,   3.025e-4
1.433,   3.153e-4
1.434,   3.288e-4
1.435,   3.429e-4
1.436,   3.571e-4
1.437,   3.723e-4
1.438,   3.882e-4
1.439,   4.050e-4
1.440,   4.226e-4
1.441,   4.407e-4
1.442,   4.598e-4
1.443,   4.796e-4
1.444,   5.005e-4
1.445,   5.217e-4
1.446,   5.433e-4
1.447,   5.664e-4
1.448,   5.900e-4
1.449,   6.143e-4
1.450,   6.402e-4
1.451,   6.660e-4
1.452,   6.928e-4
1.453,   7.211e-4
1.454,   7.494e-4
1.455,   7.792e-4
1.456,   8.101e-4
1.457,   8.408e-4
1.458,   8.728e-4
1.459,   9.055e-4
1.460,   9.391e-4
1.461,   9.734e-4
1.462,   1.008e-3
1.463,   1.044e-3
1.464,   1.080e-3
1.465,   1.117e-3
1.466,   1.155e-3
1.467,   1.194e-3
1.468,   1.233e-3
1.469,   1.273e-3
1.470,   1.314e-3
1.471,   1.356e-3
1.472,   1.398e-3
1.473,   1.441e-3
1.474,   1.486e-3
1.475,   1.531e-3
1.476,   1.576e-3
1.477,   1.621e-3
1.478,   1.667e-3
1.479,   1.714e-3
1.480,   1.762e-3
1.481,   1.811e-3
1.482,   1.860e-3
1.483,   1.907e-3
1.484,   1.958e-3
1.485,   2.009e-3
1.486,   2.059e-3
1.487,   2.111e-3
1.488,   2.164e-3
1.489,   2.216e-3
1.490,   2.271e-3
1.491,   2.325e-3
1.492,   2.381e-3
1.493,   2.436e-3
1.494,   2.493e-3
1.495,   2.549e-3
1.496,   2.607e-3
1.497,   2.666e-3
1.498,   2.726e-3
1.499,   2.785e-3
1.500,   2.846e-3
1.501,   2.909e-3
1.502,   2.969e-3
1.503,   3.031e-3
1.504,   3.093e-3
1.505,   3.158e-3
1.506,   3.223e-3
1.507,   3.290e-3
1.508,   3.357e-3
1.509,   3.424e-3
1.510,   3.493e-3
1.511,   3.560e-3
1.512,   3.632e-3
1.513,   3.704e-3
1.514,   3.774e-3
1.515,   3.846e-3
1.516,   3.920e-3
1.517,   3.995e-3
1.518,   4.066e-3
1.519,   4.142e-3
1.520,   4.226e-3
1.521,   4.305e-3
1.522,   4.379e-3
1.523,   4.456e-3
1.524,   4.538e-3
1.525,   4.621e-3
1.526,   4.703e-3
1.527,   4.784e-3
1.528,   4.868e-3
1.529,   4.961e-3
1.530,   5.042e-3
1.531,   5.124e-3
1.532,   5.210e-3
1.533,   5.302e-3
1.534,   5.394e-3
1.535,   5.484e-3
1.536,   5.573e-3
1.537,   5.666e-3
1.538,   5.753e-3
1.539,   5.848e-3
1.540,   5.941e-3
1.541,   6.036e-3
1.542,   6.132e-3
1.543,   6.211e-3
1.544,   6.311e-3
1.545,   6.415e-3
1.546,   6.526e-3
1.547,   6.620e-3
1.548,   6.715e-3
1.549,   6.819e-3
1.550,   6.917e-3
1.551,   7.027e-3
1.552,   7.122e-3
1.553,   7.222e-3
1.554,   7.332e-3
1.555,   7.442e-3
1.556,   7.551e-3
1.557,   7.652e-3
1.558,   7.764e-3
1.559,   7.863e-3
1.560,   7.975e-3
1.561,   8.077e-3
1.562,   8.168e-3
1.563,   8.272e-3
1.564,   8.380e-3
1.565,   8.483e-3
1.566,   8.601e-3
1.567,   8.732e-3
1.568,   8.837e-3
1.569,   8.939e-3
1.570,   9.050e-3
1.571,   9.133e-3
1.572,   9.259e-3
1.573,   9.380e-3
1.574,   9.481e-3
1.575,   9.582e-3
1.576,   9.692e-3
1.577,   9.809e-3
1.578,   9.897e-3
1.579,   1.001e-2
1.580,   1.006e-2
1.581,   1.006e-2