File: Experimental Records and Raw Data/batch1/final500/B1_VARIANCE_500_#4_High_Quality-391mV.txt
Dec. 12, 2022   14:25:24
Linear Sweep Voltammetry
File: d:\current work\al_oer\electrochemical test data\batch 1\500\B1_VARIANCE_500_#4_High_Quality-391mV.txt
Data Source:  Experiment
Instrument Model:  CHI660E
Header:
Note:

Init E (V) = 1.097

Final E (V) = 1.796

Scan Rate (V/s) = 0.010
Sample Interval (V) = 0.001
Quiet Time (sec) = 2
Sensitivity (A/V) = 0.001
Comp R (ohm) = 4.9

Results:

Channel 1:

Potential/V, Current/A
1.097,   4.474e-5
1.098,   4.266e-5
1.099,   3.992e-5
1.100,   3.753e-5
1.101,   3.541e-5
1.102,   3.344e-5
1.103,   3.173e-5
1.104,   3.022e-5
1.105,   2.889e-5
1.106,   2.772e-5
1.107,   2.664e-5
1.108,   2.561e-5
1.109,   2.465e-5
1.110,   2.380e-5
1.111,   2.300e-5
1.112,   2.224e-5
1.113,   2.153e-5
1.114,   2.104e-5
1.115,   2.052e-5
1.116,   1.997e-5
1.117,   1.950e-5
1.118,   1.905e-5
1.119,   1.865e-5
1.120,   1.833e-5
1.121,   1.801e-5
1.122,   1.768e-5
1.123,   1.737e-5
1.124,   1.706e-5
1.125,   1.683e-5
1.126,   1.656e-5
1.127,   1.631e-5
1.128,   1.610e-5
1.129,   1.588e-5
1.130,   1.572e-5
1.131,   1.554e-5
1.132,   1.534e-5
1.133,   1.515e-5
1.134,   1.501e-5
1.135,   1.485e-5
1.136,   1.470e-5
1.137,   1.457e-5
1.138,   1.443e-5
1.139,   1.433e-5
1.140,   1.417e-5
1.141,   1.410e-5
1.142,   1.400e-5
1.143,   1.389e-5
1.144,   1.377e-5
1.145,   1.364e-5
1.146,   1.358e-5
1.147,   1.353e-5
1.148,   1.343e-5
1.149,   1.337e-5
1.150,   1.330e-5
1.151,   1.324e-5
1.152,   1.318e-5
1.153,   1.308e-5
1.154,   1.306e-5
1.155,   1.307e-5
1.156,   1.296e-5
1.157,   1.287e-5
1.158,   1.281e-5
1.159,   1.278e-5
1.160,   1.276e-5
1.161,   1.267e-5
1.162,   1.267e-5
1.163,   1.267e-5
1.164,   1.259e-5
1.165,   1.250e-5
1.166,   1.247e-5
1.167,   1.241e-5
1.168,   1.244e-5
1.169,   1.245e-5
1.170,   1.238e-5
1.171,   1.234e-5
1.172,   1.233e-5
1.173,   1.227e-5
1.174,   1.225e-5
1.175,   1.221e-5
1.176,   1.222e-5
1.177,   1.216e-5
1.178,   1.216e-5
1.179,   1.215e-5
1.180,   1.210e-5
1.181,   1.219e-5
1.182,   1.217e-5
1.183,   1.212e-5
1.184,   1.213e-5
1.185,   1.210e-5
1.186,   1.206e-5
1.187,   1.206e-5
1.188,   1.204e-5
1.189,   1.206e-5
1.190,   1.201e-5
1.191,   1.197e-5
1.192,   1.202e-5
1.193,   1.199e-5
1.194,   1.195e-5
1.195,   1.199e-5
1.196,   1.196e-5
1.197,   1.202e-5
1.198,   1.201e-5
1.199,   1.205e-5
1.200,   1.207e-5
1.201,   1.222e-5
1.202,   1.237e-5
1.203,   1.239e-5
1.204,   1.225e-5
1.205,   1.223e-5
1.206,   1.220e-5
1.207,   1.216e-5
1.208,   1.217e-5
1.209,   1.211e-5
1.210,   1.214e-5
1.211,   1.220e-5
1.212,   1.217e-5
1.213,   1.215e-5
1.214,   1.216e-5
1.215,   1.218e-5
1.216,   1.225e-5
1.217,   1.226e-5
1.218,   1.220e-5
1.219,   1.222e-5
1.220,   1.226e-5
1.221,   1.227e-5
1.222,   1.221e-5
1.223,   1.221e-5
1.224,   1.224e-5
1.225,   1.220e-5
1.226,   1.220e-5
1.227,   1.224e-5
1.228,   1.221e-5
1.229,   1.224e-5
1.230,   1.225e-5
1.231,   1.226e-5
1.232,   1.224e-5
1.233,   1.222e-5
1.234,   1.226e-5
1.235,   1.230e-5
1.236,   1.226e-5
1.237,   1.229e-5
1.238,   1.234e-5
1.239,   1.233e-5
1.240,   1.254e-5
1.241,   1.249e-5
1.242,   1.243e-5
1.243,   1.238e-5
1.244,   1.234e-5
1.245,   1.236e-5
1.246,   1.235e-5
1.247,   1.234e-5
1.248,   1.237e-5
1.249,   1.241e-5
1.250,   1.237e-5
1.251,   1.236e-5
1.252,   1.240e-5
1.253,   1.244e-5
1.254,   1.251e-5
1.255,   1.251e-5
1.256,   1.259e-5
1.257,   1.254e-5
1.258,   1.251e-5
1.259,   1.253e-5
1.260,   1.254e-5
1.261,   1.252e-5
1.262,   1.255e-5
1.263,   1.254e-5
1.264,   1.258e-5
1.265,   1.259e-5
1.266,   1.262e-5
1.267,   1.264e-5
1.268,   1.261e-5
1.269,   1.265e-5
1.270,   1.269e-5
1.271,   1.272e-5
1.272,   1.275e-5
1.273,   1.275e-5
1.274,   1.280e-5
1.275,   1.278e-5
1.276,   1.283e-5
1.277,   1.285e-5
1.278,   1.287e-5
1.279,   1.287e-5
1.280,   1.289e-5
1.281,   1.289e-5
1.282,   1.292e-5
1.283,   1.300e-5
1.284,   1.304e-5
1.285,   1.310e-5
1.286,   1.313e-5
1.287,   1.314e-5
1.288,   1.310e-5
1.289,   1.314e-5
1.290,   1.318e-5
1.291,   1.320e-5
1.292,   1.319e-5
1.293,   1.323e-5
1.294,   1.324e-5
1.295,   1.324e-5
1.296,   1.330e-5
1.297,   1.336e-5
1.298,   1.340e-5
1.299,   1.344e-5
1.300,   1.342e-5
1.301,   1.348e-5
1.302,   1.349e-5
1.303,   1.354e-5
1.304,   1.358e-5
1.305,   1.356e-5
1.306,   1.360e-5
1.307,   1.366e-5
1.308,   1.394e-5
1.309,   1.391e-5
1.310,   1.381e-5
1.311,   1.381e-5
1.312,   1.388e-5
1.313,   1.388e-5
1.314,   1.395e-5
1.315,   1.398e-5
1.316,   1.400e-5
1.317,   1.409e-5
1.318,   1.411e-5
1.319,   1.408e-5
1.320,   1.414e-5
1.321,   1.413e-5
1.322,   1.423e-5
1.323,   1.427e-5
1.324,   1.427e-5
1.325,   1.433e-5
1.326,   1.437e-5
1.327,   1.443e-5
1.328,   1.453e-5
1.329,   1.452e-5
1.330,   1.458e-5
1.331,   1.464e-5
1.332,   1.470e-5
1.333,   1.477e-5
1.334,   1.482e-5
1.335,   1.485e-5
1.336,   1.490e-5
1.337,   1.493e-5
1.338,   1.503e-5
1.339,   1.511e-5
1.340,   1.516e-5
1.341,   1.526e-5
1.342,   1.532e-5
1.343,   1.533e-5
1.344,   1.545e-5
1.345,   1.550e-5
1.346,   1.555e-5
1.347,   1.559e-5
1.348,   1.563e-5
1.349,   1.576e-5
1.350,   1.585e-5
1.351,   1.589e-5
1.352,   1.596e-5
1.353,   1.600e-5
1.354,   1.608e-5
1.355,   1.616e-5
1.356,   1.621e-5
1.357,   1.633e-5
1.358,   1.642e-5
1.359,   1.648e-5
1.360,   1.657e-5
1.361,   1.664e-5
1.362,   1.674e-5
1.363,   1.682e-5
1.364,   1.687e-5
1.365,   1.699e-5
1.366,   1.704e-5
1.367,   1.714e-5
1.368,   1.725e-5
1.369,   1.732e-5
1.370,   1.744e-5
1.371,   1.756e-5
1.372,   1.764e-5
1.373,   1.773e-5
1.374,   1.785e-5
1.375,   1.790e-5
1.376,   1.802e-5
1.377,   1.813e-5
1.378,   1.824e-5
1.379,   1.837e-5
1.380,   1.848e-5
1.381,   1.866e-5
1.382,   1.877e-5
1.383,   1.889e-5
1.384,   1.902e-5
1.385,   1.918e-5
1.386,   1.935e-5
1.387,   1.952e-5
1.388,   1.965e-5
1.389,   1.987e-5
1.390,   1.999e-5
1.391,   2.016e-5
1.392,   2.044e-5
1.393,   2.067e-5
1.394,   2.085e-5
1.395,   2.110e-5
1.396,   2.127e-5
1.397,   2.152e-5
1.398,   2.181e-5
1.399,   2.208e-5
1.400,   2.241e-5
1.401,   2.268e-5
1.402,   2.294e-5
1.403,   2.325e-5
1.404,   2.351e-5
1.405,   2.393e-5
1.406,   2.433e-5
1.407,   2.477e-5
1.408,   2.526e-5
1.409,   2.567e-5
1.410,   2.619e-5
1.411,   2.678e-5
1.412,   2.732e-5
1.413,   2.790e-5
1.414,   2.851e-5
1.415,   2.919e-5
1.416,   2.988e-5
1.417,   3.058e-5
1.418,   3.146e-5
1.419,   3.229e-5
1.420,   3.310e-5
1.421,   3.404e-5
1.422,   3.501e-5
1.423,   3.602e-5
1.424,   3.716e-5
1.425,   3.824e-5
1.426,   3.946e-5
1.427,   4.083e-5
1.428,   4.217e-5
1.429,   4.431e-5
1.430,   4.525e-5
1.431,   4.658e-5
1.432,   4.823e-5
1.433,   4.999e-5
1.434,   5.189e-5
1.435,   5.413e-5
1.436,   5.613e-5
1.437,   5.760e-5
1.438,   6.008e-5
1.439,   6.215e-5
1.440,   6.456e-5
1.441,   6.663e-5
1.442,   6.915e-5
1.443,   7.198e-5
1.444,   7.520e-5
1.445,   7.814e-5
1.446,   8.096e-5
1.447,   8.424e-5
1.448,   8.762e-5
1.449,   9.084e-5
1.450,   9.417e-5
1.451,   9.788e-5
1.452,   1.019e-4
1.453,   1.055e-4
1.454,   1.099e-4
1.455,   1.137e-4
1.456,   1.182e-4
1.457,   1.230e-4
1.458,   1.280e-4
1.459,   1.333e-4
1.460,   1.381e-4
1.461,   1.432e-4
1.462,   1.488e-4
1.463,   1.550e-4
1.464,   1.610e-4
1.465,   1.667e-4
1.466,   1.733e-4
1.467,   1.802e-4
1.468,   1.869e-4
1.469,   1.937e-4
1.470,   2.002e-4
1.471,   2.073e-4
1.472,   2.149e-4
1.473,   2.228e-4
1.474,   2.307e-4
1.475,   2.385e-4
1.476,   2.472e-4
1.477,   2.554e-4
1.478,   2.634e-4
1.479,   2.707e-4
1.480,   2.807e-4
1.481,   2.896e-4
1.482,   2.986e-4
1.483,   3.089e-4
1.484,   3.186e-4
1.485,   3.282e-4
1.486,   3.382e-4
1.487,   3.483e-4
1.488,   3.588e-4
1.489,   3.698e-4
1.490,   3.816e-4
1.491,   3.922e-4
1.492,   4.036e-4
1.493,   4.151e-4
1.494,   4.259e-4
1.495,   4.372e-4
1.496,   4.484e-4
1.497,   4.600e-4
1.498,   4.726e-4
1.499,   4.852e-4
1.500,   4.973e-4
1.501,   5.102e-4
1.502,   5.231e-4
1.503,   5.332e-4
1.504,   5.224e-4
1.505,   5.210e-4
1.506,   5.376e-4
1.507,   5.534e-4
1.508,   5.628e-4
1.509,   5.758e-4
1.510,   5.863e-4
1.511,   5.983e-4
1.512,   6.100e-4
1.513,   6.211e-4
1.514,   6.330e-4
1.515,   6.470e-4
1.516,   6.578e-4
1.517,   6.689e-4
1.518,   6.805e-4
1.519,   6.936e-4
1.520,   7.057e-4
1.521,   7.149e-4
1.522,   7.283e-4
1.523,   7.443e-4
1.524,   7.564e-4
1.525,   7.681e-4
1.526,   7.823e-4
1.527,   7.951e-4
1.528,   8.033e-4
1.529,   8.132e-4
1.530,   8.279e-4
1.531,   8.419e-4
1.532,   8.512e-4
1.533,   8.508e-4
1.534,   8.633e-4
1.535,   8.749e-4
1.536,   8.855e-4
1.537,   8.801e-4
1.538,   8.806e-4
1.539,   9.023e-4
1.540,   9.233e-4
1.541,   9.379e-4
1.542,   9.545e-4
1.543,   9.703e-4
1.544,   9.885e-4
1.545,   1.002e-3
1.546,   1.018e-3
1.547,   1.034e-3
1.548,   1.050e-3
1.549,   1.070e-3
1.550,   1.083e-3
1.551,   1.094e-3
1.552,   1.111e-3
1.553,   1.128e-3
1.554,   1.147e-3
1.555,   1.166e-3
1.556,   1.184e-3
1.557,   1.201e-3
1.558,   1.216e-3
1.559,   1.216e-3
1.560,   1.184e-3
1.561,   1.199e-3
1.562,   1.214e-3
1.563,   1.201e-3
1.564,   1.166e-3
1.565,   1.152e-3
1.566,   1.186e-3
1.567,   1.212e-3
1.568,   1.229e-3
1.569,   1.249e-3
1.570,   1.268e-3
1.571,   1.284e-3
1.572,   1.301e-3
1.573,   1.315e-3
1.574,   1.332e-3
1.575,   1.349e-3
1.576,   1.370e-3
1.577,   1.382e-3
1.578,   1.368e-3
1.579,   1.374e-3
1.580,   1.378e-3
1.581,   1.401e-3
1.582,   1.419e-3
1.583,   1.440e-3
1.584,   1.455e-3
1.585,   1.465e-3
1.586,   1.486e-3
1.587,   1.504e-3
1.588,   1.527e-3
1.589,   1.545e-3
1.590,   1.561e-3
1.591,   1.583e-3
1.592,   1.600e-3
1.593,   1.618e-3
1.594,   1.640e-3
1.595,   1.665e-3
1.596,   1.688e-3
1.597,   1.687e-3
1.598,   1.563e-3
1.599,   1.587e-3
1.600,   1.638e-3
1.601,   1.668e-3
1.602,   1.699e-3
1.603,   1.720e-3
1.604,   1.736e-3
1.605,   1.763e-3
1.606,   1.778e-3
1.607,   1.788e-3
1.608,   1.800e-3
1.609,   1.802e-3
1.610,   1.800e-3
1.611,   1.830e-3
1.612,   1.845e-3
1.613,   1.847e-3
1.614,   1.872e-3
1.615,   1.893e-3
1.616,   1.912e-3
1.617,   1.933e-3
1.618,   1.911e-3
1.619,   1.912e-3
1.620,   1.917e-3
1.621,   1.946e-3
1.622,   1.963e-3
1.623,   1.974e-3
1.624,   1.985e-3
1.625,   1.998e-3
1.626,   2.010e-3
1.627,   2.018e-3
1.628,   1.976e-3
1.629,   1.980e-3
1.630,   2.016e-3
1.631,   2.041e-3
1.632,   2.060e-3
1.633,   2.083e-3
1.634,   2.098e-3
1.635,   2.114e-3
1.636,   2.137e-3
1.637,   2.153e-3
1.638,   2.118e-3
1.639,   2.081e-3
1.640,   2.127e-3
1.641,   2.167e-3
1.642,   2.194e-3
1.643,   2.195e-3
1.644,   2.212e-3
1.645,   2.236e-3
1.646,   2.256e-3
1.647,   2.268e-3
1.648,   2.238e-3
1.649,   2.254e-3
1.650,   2.284e-3
1.651,   2.269e-3
1.652,   2.170e-3
1.653,   2.192e-3
1.654,   2.229e-3
1.655,   2.247e-3
1.656,   2.237e-3
1.657,   2.253e-3
1.658,   2.278e-3
1.659,   2.289e-3
1.660,   2.228e-3
1.661,   2.234e-3
1.662,   2.245e-3
1.663,   2.262e-3
1.664,   2.264e-3
1.665,   2.254e-3
1.666,   2.271e-3
1.667,   2.277e-3
1.668,   2.289e-3
1.669,   2.322e-3
1.670,   2.288e-3
1.671,   2.279e-3
1.672,   2.322e-3
1.673,   2.348e-3
1.674,   2.348e-3
1.675,   2.323e-3
1.676,   2.326e-3
1.677,   2.339e-3
1.678,   2.364e-3
1.679,   2.379e-3
1.680,   2.387e-3
1.681,   2.393e-3
1.682,   2.383e-3
1.683,   2.374e-3
1.684,   2.359e-3
1.685,   2.303e-3
1.686,   2.338e-3
1.687,   2.357e-3
1.688,   2.379e-3
1.689,   2.399e-3
1.690,   2.409e-3
1.691,   2.417e-3
1.692,   2.433e-3
1.693,   2.446e-3
1.694,   2.436e-3
1.695,   2.421e-3
1.696,   2.415e-3
1.697,   2.423e-3
1.698,   2.425e-3
1.699,   2.409e-3
1.700,   2.358e-3
1.701,   2.388e-3
1.702,   2.410e-3
1.703,   2.426e-3
1.704,   2.442e-3
1.705,   2.457e-3
1.706,   2.466e-3
1.707,   2.445e-3
1.708,   2.442e-3
1.709,   2.436e-3
1.710,   2.443e-3
1.711,   2.412e-3
1.712,   2.412e-3
1.713,   2.426e-3
1.714,   2.454e-3
1.715,   2.472e-3
1.716,   2.478e-3
1.717,   2.406e-3
1.718,   2.428e-3
1.719,   2.447e-3
1.720,   2.468e-3
1.721,   2.446e-3
1.722,   2.465e-3
1.723,   2.447e-3
1.724,   2.442e-3
1.725,   2.442e-3
1.726,   2.436e-3
1.727,   2.432e-3
1.728,   2.437e-3
1.729,   2.432e-3
1.730,   2.436e-3
1.731,   2.436e-3
1.732,   2.428e-3
1.733,   2.413e-3
1.734,   2.409e-3
1.735,   2.403e-3
1.736,   2.431e-3
1.737,   2.431e-3
1.738,   2.370e-3
1.739,   2.419e-3
1.740,   2.439e-3
1.741,   2.462e-3
1.742,   2.475e-3
1.743,   2.476e-3
1.744,   2.460e-3
1.745,   2.473e-3
1.746,   2.485e-3
1.747,   2.496e-3
1.748,   2.506e-3
1.749,   2.437e-3
1.750,   2.246e-3
1.751,   2.278e-3
1.752,   2.341e-3
1.753,   2.365e-3
1.754,   2.365e-3
1.755,   2.371e-3
1.756,   2.381e-3
1.757,   2.387e-3
1.758,   2.394e-3
1.759,   2.404e-3
1.760,   2.406e-3
1.761,   2.379e-3
1.762,   2.387e-3
1.763,   2.400e-3
1.764,   2.411e-3
1.765,   2.387e-3
1.766,   2.387e-3
1.767,   2.397e-3
1.768,   2.408e-3
1.769,   2.423e-3
1.770,   2.430e-3
1.771,   2.391e-3
1.772,   2.386e-3
1.773,   2.380e-3
1.774,   2.397e-3
1.775,   2.411e-3
1.776,   2.401e-3
1.777,   2.304e-3
1.778,   2.335e-3
1.779,   2.360e-3
1.780,   2.364e-3
1.781,   2.331e-3
1.782,   2.298e-3
1.783,   2.288e-3
1.784,   2.304e-3
1.785,   2.288e-3
1.786,   2.279e-3
1.787,   2.280e-3
1.788,   2.284e-3
1.789,   2.266e-3
1.790,   2.271e-3
1.791,   2.273e-3
1.792,   2.270e-3
1.793,   2.194e-3
1.794,   2.129e-3
1.795,   2.176e-3
1.796,   2.187e-3