File: Experimental Records and Raw Data/batch1/final500/B1_VARIANCE_500_#7_High_Quality-217mV.txt
Dec. 12, 2022   16:22:02
Linear Sweep Voltammetry
File: d:\current work\al_oer\electrochemical test data\batch 1\500\B1_VARIANCE_500_#7_High_Quality-217mV.txt
Data Source:  Experiment
Instrument Model:  CHI660E
Header:
Note:

Init E (V) = 1.090

Final E (V) = 1.489

Scan Rate (V/s) = 0.010
Sample Interval (V) = 0.001
Quiet Time (sec) = 2
Sensitivity (A/V) = 0.001
Comp R (ohm) = 4.8

Results:

Channel 1:

Potential/V, Current/A
1.090,   7.340e-5
1.091,   7.439e-5
1.092,   6.971e-5
1.093,   6.516e-5
1.094,   6.146e-5
1.095,   5.821e-5
1.096,   5.541e-5
1.097,   5.303e-5
1.098,   5.090e-5
1.099,   4.900e-5
1.100,   4.738e-5
1.101,   4.579e-5
1.102,   4.456e-5
1.103,   4.333e-5
1.104,   4.230e-5
1.105,   4.146e-5
1.106,   4.049e-5
1.107,   3.975e-5
1.108,   3.915e-5
1.109,   3.834e-5
1.110,   3.792e-5
1.111,   3.747e-5
1.112,   3.691e-5
1.113,   3.650e-5
1.114,   3.600e-5
1.115,   3.561e-5
1.116,   3.537e-5
1.117,   3.500e-5
1.118,   3.470e-5
1.119,   3.446e-5
1.120,   3.411e-5
1.121,   3.394e-5
1.122,   3.364e-5
1.123,   3.350e-5
1.124,   3.338e-5
1.125,   3.307e-5
1.126,   3.298e-5
1.127,   3.283e-5
1.128,   3.263e-5
1.129,   3.260e-5
1.130,   3.247e-5
1.131,   3.230e-5
1.132,   3.230e-5
1.133,   3.211e-5
1.134,   3.204e-5
1.135,   3.199e-5
1.136,   3.198e-5
1.137,   3.196e-5
1.138,   3.179e-5
1.139,   3.178e-5
1.140,   3.183e-5
1.141,   3.165e-5
1.142,   3.172e-5
1.143,   3.169e-5
1.144,   3.158e-5
1.145,   3.162e-5
1.146,   3.153e-5
1.147,   3.154e-5
1.148,   3.161e-5
1.149,   3.154e-5
1.150,   3.155e-5
1.151,   3.156e-5
1.152,   3.154e-5
1.153,   3.168e-5
1.154,   3.155e-5
1.155,   3.163e-5
1.156,   3.175e-5
1.157,   3.159e-5
1.158,   3.175e-5
1.159,   3.176e-5
1.160,   3.180e-5
1.161,   3.192e-5
1.162,   3.191e-5
1.163,   3.192e-5
1.164,   3.203e-5
1.165,   3.203e-5
1.166,   3.211e-5
1.167,   3.213e-5
1.168,   3.217e-5
1.169,   3.233e-5
1.170,   3.225e-5
1.171,   3.231e-5
1.172,   3.251e-5
1.173,   3.236e-5
1.174,   3.259e-5
1.175,   3.268e-5
1.176,   3.259e-5
1.177,   3.276e-5
1.178,   3.275e-5
1.179,   3.283e-5
1.180,   3.297e-5
1.181,   3.294e-5
1.182,   3.307e-5
1.183,   3.313e-5
1.184,   3.321e-5
1.185,   3.341e-5
1.186,   3.329e-5
1.187,   3.348e-5
1.188,   3.356e-5
1.189,   3.353e-5
1.190,   3.365e-5
1.191,   3.376e-5
1.192,   3.379e-5
1.193,   3.391e-5
1.194,   3.395e-5
1.195,   3.403e-5
1.196,   3.422e-5
1.197,   3.413e-5
1.198,   3.428e-5
1.199,   3.440e-5
1.200,   3.448e-5
1.201,   3.468e-5
1.202,   3.463e-5
1.203,   3.470e-5
1.204,   3.493e-5
1.205,   3.480e-5
1.206,   3.496e-5
1.207,   3.505e-5
1.208,   3.501e-5
1.209,   3.525e-5
1.210,   3.524e-5
1.211,   3.529e-5
1.212,   3.541e-5
1.213,   3.540e-5
1.214,   3.557e-5
1.215,   3.560e-5
1.216,   3.568e-5
1.217,   3.579e-5
1.218,   3.576e-5
1.219,   3.586e-5
1.220,   3.606e-5
1.221,   3.596e-5
1.222,   3.617e-5
1.223,   3.618e-5
1.224,   3.617e-5
1.225,   3.638e-5
1.226,   3.640e-5
1.227,   3.647e-5
1.228,   3.660e-5
1.229,   3.651e-5
1.230,   3.665e-5
1.231,   3.669e-5
1.232,   3.676e-5
1.233,   3.691e-5
1.234,   3.686e-5
1.235,   3.702e-5
1.236,   3.714e-5
1.237,   3.698e-5
1.238,   3.711e-5
1.239,   3.715e-5
1.240,   3.706e-5
1.241,   3.729e-5
1.242,   3.719e-5
1.243,   3.724e-5
1.244,   3.736e-5
1.245,   3.728e-5
1.246,   3.741e-5
1.247,   3.742e-5
1.248,   3.746e-5
1.249,   3.755e-5
1.250,   3.746e-5
1.251,   3.764e-5
1.252,   3.773e-5
1.253,   3.759e-5
1.254,   3.770e-5
1.255,   3.778e-5
1.256,   3.779e-5
1.257,   3.788e-5
1.258,   3.787e-5
1.259,   3.784e-5
1.260,   3.801e-5
1.261,   3.797e-5
1.262,   3.809e-5
1.263,   3.809e-5
1.264,   3.818e-5
1.265,   3.830e-5
1.266,   3.818e-5
1.267,   3.828e-5
1.268,   3.837e-5
1.269,   3.834e-5
1.270,   3.851e-5
1.271,   3.850e-5
1.272,   3.847e-5
1.273,   3.866e-5
1.274,   3.860e-5
1.275,   3.862e-5
1.276,   3.871e-5
1.277,   3.879e-5
1.278,   3.886e-5
1.279,   3.889e-5
1.280,   3.888e-5
1.281,   3.902e-5
1.282,   3.898e-5
1.283,   3.912e-5
1.284,   3.926e-5
1.285,   3.909e-5
1.286,   3.926e-5
1.287,   3.936e-5
1.288,   3.939e-5
1.289,   3.959e-5
1.290,   3.955e-5
1.291,   3.970e-5
1.292,   4.022e-5
1.293,   4.016e-5
1.294,   4.018e-5
1.295,   4.018e-5
1.296,   4.024e-5
1.297,   4.030e-5
1.298,   4.017e-5
1.299,   4.023e-5
1.300,   4.035e-5
1.301,   4.030e-5
1.302,   4.054e-5
1.303,   4.059e-5
1.304,   4.055e-5
1.305,   4.075e-5
1.306,   4.074e-5
1.307,   4.076e-5
1.308,   4.094e-5
1.309,   4.095e-5
1.310,   4.111e-5
1.311,   4.114e-5
1.312,   4.116e-5
1.313,   4.147e-5
1.314,   4.141e-5
1.315,   4.170e-5
1.316,   4.183e-5
1.317,   4.172e-5
1.318,   4.189e-5
1.319,   4.202e-5
1.320,   4.201e-5
1.321,   4.228e-5
1.322,   4.232e-5
1.323,   4.241e-5
1.324,   4.261e-5
1.325,   4.260e-5
1.326,   4.280e-5
1.327,   4.291e-5
1.328,   4.309e-5
1.329,   4.326e-5
1.330,   4.321e-5
1.331,   4.343e-5
1.332,   4.371e-5
1.333,   4.364e-5
1.334,   4.392e-5
1.335,   4.413e-5
1.336,   4.426e-5
1.337,   4.447e-5
1.338,   4.456e-5
1.339,   4.476e-5
1.340,   4.505e-5
1.341,   4.526e-5
1.342,   4.551e-5
1.343,   4.565e-5
1.344,   4.583e-5
1.345,   4.613e-5
1.346,   4.630e-5
1.347,   4.662e-5
1.348,   4.694e-5
1.349,   4.707e-5
1.350,   4.741e-5
1.351,   4.769e-5
1.352,   4.788e-5
1.353,   4.840e-5
1.354,   4.879e-5
1.355,   4.903e-5
1.356,   4.954e-5
1.357,   4.982e-5
1.358,   5.028e-5
1.359,   5.075e-5
1.360,   5.123e-5
1.361,   5.184e-5
1.362,   5.223e-5
1.363,   5.283e-5
1.364,   5.360e-5
1.365,   5.411e-5
1.366,   5.495e-5
1.367,   5.574e-5
1.368,   5.630e-5
1.369,   5.725e-5
1.370,   5.801e-5
1.371,   5.907e-5
1.372,   6.019e-5
1.373,   6.128e-5
1.374,   6.252e-5
1.375,   6.379e-5
1.376,   6.508e-5
1.377,   6.664e-5
1.378,   6.809e-5
1.379,   7.000e-5
1.380,   7.209e-5
1.381,   7.373e-5
1.382,   7.608e-5
1.383,   7.845e-5
1.384,   8.085e-5
1.385,   8.361e-5
1.386,   8.643e-5
1.387,   8.952e-5
1.388,   9.295e-5
1.389,   9.641e-5
1.390,   1.002e-4
1.391,   1.044e-4
1.392,   1.087e-4
1.393,   1.136e-4
1.394,   1.184e-4
1.395,   1.239e-4
1.396,   1.298e-4
1.397,   1.356e-4
1.398,   1.425e-4
1.399,   1.496e-4
1.400,   1.571e-4
1.401,   1.653e-4
1.402,   1.738e-4
1.403,   1.829e-4
1.404,   1.926e-4
1.405,   2.029e-4
1.406,   2.139e-4
1.407,   2.255e-4
1.408,   2.379e-4
1.409,   2.510e-4
1.410,   2.648e-4
1.411,   2.797e-4
1.412,   2.952e-4
1.413,   3.115e-4
1.414,   3.289e-4
1.415,   3.473e-4
1.416,   3.666e-4
1.417,   3.871e-4
1.418,   4.086e-4
1.419,   4.313e-4
1.420,   4.555e-4
1.421,   4.808e-4
1.422,   5.075e-4
1.423,   5.354e-4
1.424,   5.650e-4
1.425,   5.962e-4
1.426,   6.287e-4
1.427,   6.629e-4
1.428,   6.991e-4
1.429,   7.367e-4
1.430,   7.766e-4
1.431,   8.185e-4
1.432,   8.626e-4
1.433,   9.088e-4
1.434,   9.569e-4
1.435,   1.008e-3
1.436,   1.061e-3
1.437,   1.116e-3
1.438,   1.175e-3
1.439,   1.236e-3
1.440,   1.300e-3
1.441,   1.367e-3
1.442,   1.437e-3
1.443,   1.511e-3
1.444,   1.588e-3
1.445,   1.668e-3
1.446,   1.753e-3
1.447,   1.841e-3
1.448,   1.933e-3
1.449,   2.030e-3
1.450,   2.130e-3
1.451,   2.235e-3
1.452,   2.345e-3
1.453,   2.458e-3
1.454,   2.577e-3
1.455,   2.700e-3
1.456,   2.831e-3
1.457,   2.967e-3
1.458,   3.111e-3
1.459,   3.261e-3
1.460,   3.413e-3
1.461,   3.571e-3
1.462,   3.739e-3
1.463,   3.916e-3
1.464,   4.101e-3
1.465,   4.290e-3
1.466,   4.484e-3
1.467,   4.680e-3
1.468,   4.888e-3
1.469,   5.105e-3
1.470,   5.327e-3
1.471,   5.553e-3
1.472,   5.800e-3
1.473,   6.045e-3
1.474,   6.344e-3
1.475,   6.655e-3
1.476,   6.934e-3
1.477,   7.198e-3
1.478,   7.465e-3
1.479,   7.755e-3
1.480,   8.040e-3
1.481,   8.361e-3
1.482,   8.690e-3
1.483,   9.003e-3
1.484,   9.370e-3
1.485,   9.897e-3
1.486,   1.006e-2
1.487,   1.006e-2
1.488,   1.006e-2
1.489,   1.006e-2