File: Experimental Records and Raw Data/batch3/final400/B3_BEST_400_#6_Full-182mV.txt
Feb. 20, 2023   15:26:56
Linear Sweep Voltammetry
File: d:\current work\al_oer\electrochemical test data\batch 3\400\B3_BEST_400_#6_Full-182mV.txt
Data Source:  Experiment
Instrument Model:  CHI660E
Header:
Note:

Init E (V) = 1.098

Final E (V) = 1.447

Scan Rate (V/s) = 0.010
Sample Interval (V) = 0.001
Quiet Time (sec) = 2
Sensitivity (A/V) = 0.001
Comp R (ohm) = 5.3

Results:

Channel 1:

Potential/V, Current/A
1.098,   2.789e-4
1.099,   2.529e-4
1.100,   2.259e-4
1.101,   2.021e-4
1.102,   1.829e-4
1.103,   1.670e-4
1.104,   1.538e-4
1.105,   1.432e-4
1.106,   1.343e-4
1.107,   1.268e-4
1.108,   1.204e-4
1.109,   1.149e-4
1.110,   1.103e-4
1.111,   1.061e-4
1.112,   1.027e-4
1.113,   9.962e-5
1.114,   9.663e-5
1.115,   9.438e-5
1.116,   9.234e-5
1.117,   9.025e-5
1.118,   8.877e-5
1.119,   8.743e-5
1.120,   8.572e-5
1.121,   8.452e-5
1.122,   8.323e-5
1.123,   8.228e-5
1.124,   8.136e-5
1.125,   8.040e-5
1.126,   7.968e-5
1.127,   7.891e-5
1.128,   7.818e-5
1.129,   7.770e-5
1.130,   7.700e-5
1.131,   7.660e-5
1.132,   7.627e-5
1.133,   7.557e-5
1.134,   7.523e-5
1.135,   7.484e-5
1.136,   7.447e-5
1.137,   7.428e-5
1.138,   7.392e-5
1.139,   7.363e-5
1.140,   7.355e-5
1.141,   7.317e-5
1.142,   7.309e-5
1.143,   7.282e-5
1.144,   7.267e-5
1.145,   7.259e-5
1.146,   7.229e-5
1.147,   7.220e-5
1.148,   7.215e-5
1.149,   7.184e-5
1.150,   7.197e-5
1.151,   7.182e-5
1.152,   7.174e-5
1.153,   7.178e-5
1.154,   7.148e-5
1.155,   7.151e-5
1.156,   7.148e-5
1.157,   7.145e-5
1.158,   7.155e-5
1.159,   7.125e-5
1.160,   7.113e-5
1.161,   7.127e-5
1.162,   7.107e-5
1.163,   7.121e-5
1.164,   7.126e-5
1.165,   7.101e-5
1.166,   7.111e-5
1.167,   7.100e-5
1.168,   7.105e-5
1.169,   7.110e-5
1.170,   7.116e-5
1.171,   7.109e-5
1.172,   7.113e-5
1.173,   7.098e-5
1.174,   7.121e-5
1.175,   7.104e-5
1.176,   7.114e-5
1.177,   7.134e-5
1.178,   7.103e-5
1.179,   7.116e-5
1.180,   7.127e-5
1.181,   7.113e-5
1.182,   7.138e-5
1.183,   7.140e-5
1.184,   7.123e-5
1.185,   7.143e-5
1.186,   7.126e-5
1.187,   7.139e-5
1.188,   7.156e-5
1.189,   7.137e-5
1.190,   7.159e-5
1.191,   7.141e-5
1.192,   7.150e-5
1.193,   7.166e-5
1.194,   7.145e-5
1.195,   7.176e-5
1.196,   7.182e-5
1.197,   7.169e-5
1.198,   7.183e-5
1.199,   7.177e-5
1.200,   7.179e-5
1.201,   7.196e-5
1.202,   7.189e-5
1.203,   7.201e-5
1.204,   7.208e-5
1.205,   7.201e-5
1.206,   7.214e-5
1.207,   7.207e-5
1.208,   7.221e-5
1.209,   7.253e-5
1.210,   7.214e-5
1.211,   7.236e-5
1.212,   7.252e-5
1.213,   7.231e-5
1.214,   7.255e-5
1.215,   7.257e-5
1.216,   7.261e-5
1.217,   7.273e-5
1.218,   7.264e-5
1.219,   7.278e-5
1.220,   7.289e-5
1.221,   7.287e-5
1.222,   7.305e-5
1.223,   7.292e-5
1.224,   7.305e-5
1.225,   7.333e-5
1.226,   7.307e-5
1.227,   7.331e-5
1.228,   7.347e-5
1.229,   7.326e-5
1.230,   7.349e-5
1.231,   7.343e-5
1.232,   7.339e-5
1.233,   7.364e-5
1.234,   7.368e-5
1.235,   7.376e-5
1.236,   7.388e-5
1.237,   7.371e-5
1.238,   7.389e-5
1.239,   7.405e-5
1.240,   7.411e-5
1.241,   7.421e-5
1.242,   7.413e-5
1.243,   7.435e-5
1.244,   7.442e-5
1.245,   7.437e-5
1.246,   7.450e-5
1.247,   7.462e-5
1.248,   7.461e-5
1.249,   7.489e-5
1.250,   7.472e-5
1.251,   7.488e-5
1.252,   7.509e-5
1.253,   7.498e-5
1.254,   7.518e-5
1.255,   7.522e-5
1.256,   7.519e-5
1.257,   7.547e-5
1.258,   7.535e-5
1.259,   7.577e-5
1.260,   7.596e-5
1.261,   7.567e-5
1.262,   7.603e-5
1.263,   7.610e-5
1.264,   7.604e-5
1.265,   7.636e-5
1.266,   7.641e-5
1.267,   7.646e-5
1.268,   7.673e-5
1.269,   7.669e-5
1.270,   7.686e-5
1.271,   7.689e-5
1.272,   7.719e-5
1.273,   7.747e-5
1.274,   7.728e-5
1.275,   7.755e-5
1.276,   7.770e-5
1.277,   7.772e-5
1.278,   7.805e-5
1.279,   7.815e-5
1.280,   7.810e-5
1.281,   7.844e-5
1.282,   7.832e-5
1.283,   7.859e-5
1.284,   7.895e-5
1.285,   7.910e-5
1.286,   7.932e-5
1.287,   7.928e-5
1.288,   7.953e-5
1.289,   7.988e-5
1.290,   7.974e-5
1.291,   8.024e-5
1.292,   8.041e-5
1.293,   8.036e-5
1.294,   8.088e-5
1.295,   8.096e-5
1.296,   8.106e-5
1.297,   8.155e-5
1.298,   8.169e-5
1.299,   8.192e-5
1.300,   8.221e-5
1.301,   8.222e-5
1.302,   8.271e-5
1.303,   8.287e-5
1.304,   8.317e-5
1.305,   8.366e-5
1.306,   8.367e-5
1.307,   8.414e-5
1.308,   8.450e-5
1.309,   8.451e-5
1.310,   8.518e-5
1.311,   8.570e-5
1.312,   8.572e-5
1.313,   8.643e-5
1.314,   8.650e-5
1.315,   8.694e-5
1.316,   8.749e-5
1.317,   8.777e-5
1.318,   8.843e-5
1.319,   8.877e-5
1.320,   8.922e-5
1.321,   9.004e-5
1.322,   9.022e-5
1.323,   9.117e-5
1.324,   9.189e-5
1.325,   9.189e-5
1.326,   9.278e-5
1.327,   9.333e-5
1.328,   9.389e-5
1.329,   9.493e-5
1.330,   9.545e-5
1.331,   9.619e-5
1.332,   9.719e-5
1.333,   9.764e-5
1.334,   9.886e-5
1.335,   9.977e-5
1.336,   1.009e-4
1.337,   1.020e-4
1.338,   1.028e-4
1.339,   1.041e-4
1.340,   1.053e-4
1.341,   1.063e-4
1.342,   1.079e-4
1.343,   1.092e-4
1.344,   1.105e-4
1.345,   1.123e-4
1.346,   1.137e-4
1.347,   1.154e-4
1.348,   1.173e-4
1.349,   1.191e-4
1.350,   1.210e-4
1.351,   1.231e-4
1.352,   1.251e-4
1.353,   1.277e-4
1.354,   1.299e-4
1.355,   1.325e-4
1.356,   1.353e-4
1.357,   1.378e-4
1.358,   1.412e-4
1.359,   1.443e-4
1.360,   1.475e-4
1.361,   1.512e-4
1.362,   1.550e-4
1.363,   1.589e-4
1.364,   1.633e-4
1.365,   1.676e-4
1.366,   1.727e-4
1.367,   1.776e-4
1.368,   1.830e-4
1.369,   1.891e-4
1.370,   1.948e-4
1.371,   2.016e-4
1.372,   2.088e-4
1.373,   2.160e-4
1.374,   2.246e-4
1.375,   2.334e-4
1.376,   2.426e-4
1.377,   2.529e-4
1.378,   2.634e-4
1.379,   2.750e-4
1.380,   2.878e-4
1.381,   3.011e-4
1.382,   3.157e-4
1.383,   3.312e-4
1.384,   3.479e-4
1.385,   3.663e-4
1.386,   3.852e-4
1.387,   4.067e-4
1.388,   4.294e-4
1.389,   4.532e-4
1.390,   4.798e-4
1.391,   5.078e-4
1.392,   5.377e-4
1.393,   5.706e-4
1.394,   6.058e-4
1.395,   6.436e-4
1.396,   6.840e-4
1.397,   7.276e-4
1.398,   7.744e-4
1.399,   8.243e-4
1.400,   8.781e-4
1.401,   9.364e-4
1.402,   9.975e-4
1.403,   1.064e-3
1.404,   1.135e-3
1.405,   1.210e-3
1.406,   1.291e-3
1.407,   1.376e-3
1.408,   1.467e-3
1.409,   1.565e-3
1.410,   1.667e-3
1.411,   1.776e-3
1.412,   1.891e-3
1.413,   2.013e-3
1.414,   2.142e-3
1.415,   2.276e-3
1.416,   2.417e-3
1.417,   2.565e-3
1.418,   2.718e-3
1.419,   2.878e-3
1.420,   3.046e-3
1.421,   3.216e-3
1.422,   3.391e-3
1.423,   3.564e-3
1.424,   3.744e-3
1.425,   3.932e-3
1.426,   4.116e-3
1.427,   4.299e-3
1.428,   4.478e-3
1.429,   4.659e-3
1.430,   4.836e-3
1.431,   4.999e-3
1.432,   5.154e-3
1.433,   5.315e-3
1.434,   5.471e-3
1.435,   5.596e-3
1.436,   5.715e-3
1.437,   5.825e-3
1.438,   5.920e-3
1.439,   6.006e-3
1.440,   6.076e-3
1.441,   6.126e-3
1.442,   6.176e-3
1.443,   6.208e-3
1.444,   6.226e-3
1.445,   6.226e-3
1.446,   6.215e-3
1.447,   6.209e-3