File: Experimental Records and Raw Data/batch3/final400/B3_BEST_400_#6_High_Quality(#19)-187mV.txt
Feb. 21, 2023   14:50:35
Linear Sweep Voltammetry
File: d:\current work\al_oer\electrochemical test data\batch 3\400\B3_BEST_400_#6_High_Quality(#19)-187mV.txt
Data Source:  Experiment
Instrument Model:  CHI660E
Header:
Note:

Init E (V) = 1.098

Final E (V) = 1.452

Scan Rate (V/s) = 0.010
Sample Interval (V) = 0.001
Quiet Time (sec) = 2
Sensitivity (A/V) = 0.001
Comp R (ohm) = 5.3

Results:

Channel 1:

Potential/V, Current/A
1.098,   7.335e-4
1.099,   6.527e-4
1.100,   5.710e-4
1.101,   5.052e-4
1.102,   4.535e-4
1.103,   4.131e-4
1.104,   3.800e-4
1.105,   3.544e-4
1.106,   3.324e-4
1.107,   3.143e-4
1.108,   2.991e-4
1.109,   2.859e-4
1.110,   2.751e-4
1.111,   2.654e-4
1.112,   2.568e-4
1.113,   2.502e-4
1.114,   2.427e-4
1.115,   2.376e-4
1.116,   2.326e-4
1.117,   2.269e-4
1.118,   2.235e-4
1.119,   2.205e-4
1.120,   2.157e-4
1.121,   2.127e-4
1.122,   2.106e-4
1.123,   2.076e-4
1.124,   2.052e-4
1.125,   2.023e-4
1.126,   2.010e-4
1.127,   1.994e-4
1.128,   1.977e-4
1.129,   1.965e-4
1.130,   1.943e-4
1.131,   1.926e-4
1.132,   1.924e-4
1.133,   1.905e-4
1.134,   1.892e-4
1.135,   1.890e-4
1.136,   1.879e-4
1.137,   1.862e-4
1.138,   1.871e-4
1.139,   1.830e-4
1.140,   1.851e-4
1.141,   1.835e-4
1.142,   1.826e-4
1.143,   1.831e-4
1.144,   1.810e-4
1.145,   1.830e-4
1.146,   1.811e-4
1.147,   1.827e-4
1.148,   1.798e-4
1.149,   1.806e-4
1.150,   1.774e-4
1.151,   1.813e-4
1.152,   1.777e-4
1.153,   1.815e-4
1.154,   1.782e-4
1.155,   1.786e-4
1.156,   1.776e-4
1.157,   1.799e-4
1.158,   1.801e-4
1.159,   1.764e-4
1.160,   1.769e-4
1.161,   1.818e-4
1.162,   1.760e-4
1.163,   1.772e-4
1.164,   1.823e-4
1.165,   1.739e-4
1.166,   1.792e-4
1.167,   1.785e-4
1.168,   1.777e-4
1.169,   1.804e-4
1.170,   1.739e-4
1.171,   1.812e-4
1.172,   1.739e-4
1.173,   1.819e-4
1.174,   1.766e-4
1.175,   1.825e-4
1.176,   1.778e-4
1.177,   1.795e-4
1.178,   1.787e-4
1.179,   1.751e-4
1.180,   1.820e-4
1.181,   1.720e-4
1.182,   1.847e-4
1.183,   1.772e-4
1.184,   1.786e-4
1.185,   1.828e-4
1.186,   1.736e-4
1.187,   1.808e-4
1.188,   1.814e-4
1.189,   1.780e-4
1.190,   1.821e-4
1.191,   1.818e-4
1.192,   1.815e-4
1.193,   1.811e-4
1.194,   1.822e-4
1.195,   1.892e-4
1.196,   1.803e-4
1.197,   1.724e-4
1.198,   1.761e-4
1.199,   1.809e-4
1.200,   1.895e-4
1.201,   1.888e-4
1.202,   1.837e-4
1.203,   1.762e-4
1.204,   1.730e-4
1.205,   1.840e-4
1.206,   1.917e-4
1.207,   1.868e-4
1.208,   1.799e-4
1.209,   1.806e-4
1.210,   1.825e-4
1.211,   1.842e-4
1.212,   1.736e-4
1.213,   1.790e-4
1.214,   1.903e-4
1.215,   1.903e-4
1.216,   1.770e-4
1.217,   1.839e-4
1.218,   1.936e-4
1.219,   1.848e-4
1.220,   1.788e-4
1.221,   1.807e-4
1.222,   1.865e-4
1.223,   1.769e-4
1.224,   1.781e-4
1.225,   1.879e-4
1.226,   1.807e-4
1.227,   1.816e-4
1.228,   1.853e-4
1.229,   1.852e-4
1.230,   1.816e-4
1.231,   1.856e-4
1.232,   1.852e-4
1.233,   1.784e-4
1.234,   1.842e-4
1.235,   1.873e-4
1.236,   1.821e-4
1.237,   1.868e-4
1.238,   1.815e-4
1.239,   1.858e-4
1.240,   1.850e-4
1.241,   1.801e-4
1.242,   1.915e-4
1.243,   1.849e-4
1.244,   1.852e-4
1.245,   1.874e-4
1.246,   1.857e-4
1.247,   1.870e-4
1.248,   1.859e-4
1.249,   1.772e-4
1.250,   1.812e-4
1.251,   1.813e-4
1.252,   1.792e-4
1.253,   1.876e-4
1.254,   1.835e-4
1.255,   1.907e-4
1.256,   1.835e-4
1.257,   1.884e-4
1.258,   1.836e-4
1.259,   1.829e-4
1.260,   1.805e-4
1.261,   1.799e-4
1.262,   1.815e-4
1.263,   1.819e-4
1.264,   1.942e-4
1.265,   1.826e-4
1.266,   1.914e-4
1.267,   1.759e-4
1.268,   1.845e-4
1.269,   1.764e-4
1.270,   1.874e-4
1.271,   1.868e-4
1.272,   1.911e-4
1.273,   1.808e-4
1.274,   1.781e-4
1.275,   1.810e-4
1.276,   1.892e-4
1.277,   1.814e-4
1.278,   1.929e-4
1.279,   1.846e-4
1.280,   1.780e-4
1.281,   1.809e-4
1.282,   1.884e-4
1.283,   1.879e-4
1.284,   1.845e-4
1.285,   1.857e-4
1.286,   1.753e-4
1.287,   1.884e-4
1.288,   1.907e-4
1.289,   1.889e-4
1.290,   1.770e-4
1.291,   1.757e-4
1.292,   1.957e-4
1.293,   1.935e-4
1.294,   1.814e-4
1.295,   1.765e-4
1.296,   1.840e-4
1.297,   2.010e-4
1.298,   1.780e-4
1.299,   1.797e-4
1.300,   1.902e-4
1.301,   1.951e-4
1.302,   1.871e-4
1.303,   1.787e-4
1.304,   1.943e-4
1.305,   1.918e-4
1.306,   1.803e-4
1.307,   1.871e-4
1.308,   1.932e-4
1.309,   1.856e-4
1.310,   1.866e-4
1.311,   1.994e-4
1.312,   1.875e-4
1.313,   1.780e-4
1.314,   1.962e-4
1.315,   1.969e-4
1.316,   1.781e-4
1.317,   2.000e-4
1.318,   1.900e-4
1.319,   1.843e-4
1.320,   2.035e-4
1.321,   1.854e-4
1.322,   1.892e-4
1.323,   2.050e-4
1.324,   1.811e-4
1.325,   2.023e-4
1.326,   1.979e-4
1.327,   1.848e-4
1.328,   2.104e-4
1.329,   1.845e-4
1.330,   2.086e-4
1.331,   1.931e-4
1.332,   1.952e-4
1.333,   2.063e-4
1.334,   1.912e-4
1.335,   2.077e-4
1.336,   1.886e-4
1.337,   2.146e-4
1.338,   1.864e-4
1.339,   2.220e-4
1.340,   1.901e-4
1.341,   2.205e-4
1.342,   1.913e-4
1.343,   2.156e-4
1.344,   1.969e-4
1.345,   2.203e-4
1.346,   1.955e-4
1.347,   2.286e-4
1.348,   1.992e-4
1.349,   2.268e-4
1.350,   1.998e-4
1.351,   2.237e-4
1.352,   2.199e-4
1.353,   2.135e-4
1.354,   2.302e-4
1.355,   2.022e-4
1.356,   2.418e-4
1.357,   2.268e-4
1.358,   2.141e-4
1.359,   2.443e-4
1.360,   2.282e-4
1.361,   2.310e-4
1.362,   2.464e-4
1.363,   2.348e-4
1.364,   2.399e-4
1.365,   2.589e-4
1.366,   2.454e-4
1.367,   2.410e-4
1.368,   2.729e-4
1.369,   2.683e-4
1.370,   2.458e-4
1.371,   2.786e-4
1.372,   2.814e-4
1.373,   2.837e-4
1.374,   2.834e-4
1.375,   2.793e-4
1.376,   3.212e-4
1.377,   3.004e-4
1.378,   3.212e-4
1.379,   3.027e-4
1.380,   3.436e-4
1.381,   3.383e-4
1.382,   3.712e-4
1.383,   3.529e-4
1.384,   3.791e-4
1.385,   3.741e-4
1.386,   4.071e-4
1.387,   4.078e-4
1.388,   4.372e-4
1.389,   4.550e-4
1.390,   4.703e-4
1.391,   4.961e-4
1.392,   5.049e-4
1.393,   5.356e-4
1.394,   5.546e-4
1.395,   5.798e-4
1.396,   6.177e-4
1.397,   6.273e-4
1.398,   6.842e-4
1.399,   7.047e-4
1.400,   7.521e-4
1.401,   7.906e-4
1.402,   8.258e-4
1.403,   8.673e-4
1.404,   9.183e-4
1.405,   9.666e-4
1.406,   1.022e-3
1.407,   1.061e-3
1.408,   1.152e-3
1.409,   1.193e-3
1.410,   1.263e-3
1.411,   1.347e-3
1.412,   1.444e-3
1.413,   1.502e-3
1.414,   1.594e-3
1.415,   1.693e-3
1.416,   1.784e-3
1.417,   1.882e-3
1.418,   2.005e-3
1.419,   2.149e-3
1.420,   2.284e-3
1.421,   2.391e-3
1.422,   2.535e-3
1.423,   2.693e-3
1.424,   2.854e-3
1.425,   2.997e-3
1.426,   3.191e-3
1.427,   3.369e-3
1.428,   3.559e-3
1.429,   3.764e-3
1.430,   3.976e-3
1.431,   4.191e-3
1.432,   4.419e-3
1.433,   4.649e-3
1.434,   4.900e-3
1.435,   5.134e-3
1.436,   5.375e-3
1.437,   5.637e-3
1.438,   5.922e-3
1.439,   6.229e-3
1.440,   6.577e-3
1.441,   6.893e-3
1.442,   7.218e-3
1.443,   7.633e-3
1.444,   7.953e-3
1.445,   8.361e-3
1.446,   8.897e-3
1.447,   9.240e-3
1.448,   9.599e-3
1.449,   9.967e-3
1.450,   1.006e-2
1.451,   1.006e-2
1.452,   1.006e-2