File: Experimental Records and Raw Data/batch3/final400/B3_BEST_400_#7_High_Quality(#20)-225mV.txt
Feb. 20, 2023   14:26:01
Linear Sweep Voltammetry
File: d:\current work\al_oer\electrochemical test data\batch 3\400\B3_BEST_400_#7_High_Quality(#20)-225mV.txt
Data Source:  Experiment
Instrument Model:  CHI660E
Header:
Note:

Init E (V) = 1.099

Final E (V) = 1.500

Scan Rate (V/s) = 0.010
Sample Interval (V) = 0.001
Quiet Time (sec) = 2
Sensitivity (A/V) = 0.001
Comp R (ohm) = 5.3

Results:

Channel 1:

Potential/V, Current/A
1.099,   1.426e-4
1.100,   1.493e-4
1.101,   1.424e-4
1.102,   1.353e-4
1.103,   1.293e-4
1.104,   1.238e-4
1.105,   1.188e-4
1.106,   1.146e-4
1.107,   1.106e-4
1.108,   1.070e-4
1.109,   1.040e-4
1.110,   1.009e-4
1.111,   9.835e-5
1.112,   9.592e-5
1.113,   9.376e-5
1.114,   9.193e-5
1.115,   8.989e-5
1.116,   8.821e-5
1.117,   8.680e-5
1.118,   8.508e-5
1.119,   8.398e-5
1.120,   8.284e-5
1.121,   8.142e-5
1.122,   8.049e-5
1.123,   7.926e-5
1.124,   7.831e-5
1.125,   7.758e-5
1.126,   7.660e-5
1.127,   7.592e-5
1.128,   7.509e-5
1.129,   7.431e-5
1.130,   7.386e-5
1.131,   7.311e-5
1.132,   7.270e-5
1.133,   7.226e-5
1.134,   7.146e-5
1.135,   7.119e-5
1.136,   7.079e-5
1.137,   7.025e-5
1.138,   7.005e-5
1.139,   6.958e-5
1.140,   6.924e-5
1.141,   6.902e-5
1.142,   6.858e-5
1.143,   6.844e-5
1.144,   6.811e-5
1.145,   6.795e-5
1.146,   6.788e-5
1.147,   6.748e-5
1.148,   6.735e-5
1.149,   6.732e-5
1.150,   6.694e-5
1.151,   6.702e-5
1.152,   6.689e-5
1.153,   6.654e-5
1.154,   6.673e-5
1.155,   6.634e-5
1.156,   6.635e-5
1.157,   6.641e-5
1.158,   6.631e-5
1.159,   6.625e-5
1.160,   6.621e-5
1.161,   6.607e-5
1.162,   6.629e-5
1.163,   6.604e-5
1.164,   6.617e-5
1.165,   6.621e-5
1.166,   6.589e-5
1.167,   6.608e-5
1.168,   6.624e-5
1.169,   6.602e-5
1.170,   6.639e-5
1.171,   6.635e-5
1.172,   6.632e-5
1.173,   6.642e-5
1.174,   6.632e-5
1.175,   6.650e-5
1.176,   6.656e-5
1.177,   6.651e-5
1.178,   6.683e-5
1.179,   6.660e-5
1.180,   6.690e-5
1.181,   6.700e-5
1.182,   6.679e-5
1.183,   6.714e-5
1.184,   6.737e-5
1.185,   6.721e-5
1.186,   6.753e-5
1.187,   6.736e-5
1.188,   6.751e-5
1.189,   6.783e-5
1.190,   6.761e-5
1.191,   6.792e-5
1.192,   6.806e-5
1.193,   6.813e-5
1.194,   6.836e-5
1.195,   6.811e-5
1.196,   6.849e-5
1.197,   6.872e-5
1.198,   6.851e-5
1.199,   6.876e-5
1.200,   6.877e-5
1.201,   6.883e-5
1.202,   6.913e-5
1.203,   6.915e-5
1.204,   6.918e-5
1.205,   6.942e-5
1.206,   6.932e-5
1.207,   6.965e-5
1.208,   6.959e-5
1.209,   6.988e-5
1.210,   7.006e-5
1.211,   6.987e-5
1.212,   7.004e-5
1.213,   7.018e-5
1.214,   7.002e-5
1.215,   7.038e-5
1.216,   7.037e-5
1.217,   7.028e-5
1.218,   7.067e-5
1.219,   7.038e-5
1.220,   7.061e-5
1.221,   7.079e-5
1.222,   7.070e-5
1.223,   7.083e-5
1.224,   7.089e-5
1.225,   7.075e-5
1.226,   7.108e-5
1.227,   7.089e-5
1.228,   7.109e-5
1.229,   7.125e-5
1.230,   7.098e-5
1.231,   7.117e-5
1.232,   7.117e-5
1.233,   7.101e-5
1.234,   7.132e-5
1.235,   7.140e-5
1.236,   7.122e-5
1.237,   7.138e-5
1.238,   7.111e-5
1.239,   7.134e-5
1.240,   7.131e-5
1.241,   7.136e-5
1.242,   7.149e-5
1.243,   7.121e-5
1.244,   7.127e-5
1.245,   7.144e-5
1.246,   7.114e-5
1.247,   7.135e-5
1.248,   7.138e-5
1.249,   7.110e-5
1.250,   7.135e-5
1.251,   7.116e-5
1.252,   7.116e-5
1.253,   7.126e-5
1.254,   7.105e-5
1.255,   7.113e-5
1.256,   7.098e-5
1.257,   7.097e-5
1.258,   7.109e-5
1.259,   7.081e-5
1.260,   7.109e-5
1.261,   7.110e-5
1.262,   7.063e-5
1.263,   7.092e-5
1.264,   7.081e-5
1.265,   7.057e-5
1.266,   7.075e-5
1.267,   7.066e-5
1.268,   7.058e-5
1.269,   7.068e-5
1.270,   7.046e-5
1.271,   7.050e-5
1.272,   7.045e-5
1.273,   7.051e-5
1.274,   7.062e-5
1.275,   7.025e-5
1.276,   7.033e-5
1.277,   7.041e-5
1.278,   7.014e-5
1.279,   7.031e-5
1.280,   7.040e-5
1.281,   7.010e-5
1.282,   7.034e-5
1.283,   7.015e-5
1.284,   7.006e-5
1.285,   7.018e-5
1.286,   7.016e-5
1.287,   7.014e-5
1.288,   7.008e-5
1.289,   7.001e-5
1.290,   7.026e-5
1.291,   6.999e-5
1.292,   7.004e-5
1.293,   7.017e-5
1.294,   6.989e-5
1.295,   7.006e-5
1.296,   7.003e-5
1.297,   6.994e-5
1.298,   7.027e-5
1.299,   7.018e-5
1.300,   7.004e-5
1.301,   7.028e-5
1.302,   7.004e-5
1.303,   7.020e-5
1.304,   7.027e-5
1.305,   7.023e-5
1.306,   7.041e-5
1.307,   7.029e-5
1.308,   7.030e-5
1.309,   7.061e-5
1.310,   7.032e-5
1.311,   7.054e-5
1.312,   7.079e-5
1.313,   7.053e-5
1.314,   7.085e-5
1.315,   7.064e-5
1.316,   7.077e-5
1.317,   7.109e-5
1.318,   7.098e-5
1.319,   7.107e-5
1.320,   7.114e-5
1.321,   7.123e-5
1.322,   7.155e-5
1.323,   7.135e-5
1.324,   7.194e-5
1.325,   7.210e-5
1.326,   7.176e-5
1.327,   7.206e-5
1.328,   7.222e-5
1.329,   7.224e-5
1.330,   7.251e-5
1.331,   7.251e-5
1.332,   7.262e-5
1.333,   7.301e-5
1.334,   7.295e-5
1.335,   7.321e-5
1.336,   7.339e-5
1.337,   7.366e-5
1.338,   7.389e-5
1.339,   7.374e-5
1.340,   7.422e-5
1.341,   7.448e-5
1.342,   7.446e-5
1.343,   7.493e-5
1.344,   7.521e-5
1.345,   7.524e-5
1.346,   7.574e-5
1.347,   7.593e-5
1.348,   7.612e-5
1.349,   7.661e-5
1.350,   7.683e-5
1.351,   7.722e-5
1.352,   7.751e-5
1.353,   7.773e-5
1.354,   7.838e-5
1.355,   7.835e-5
1.356,   7.895e-5
1.357,   7.951e-5
1.358,   7.951e-5
1.359,   8.028e-5
1.360,   8.060e-5
1.361,   8.091e-5
1.362,   8.176e-5
1.363,   8.212e-5
1.364,   8.244e-5
1.365,   8.329e-5
1.366,   8.350e-5
1.367,   8.428e-5
1.368,   8.481e-5
1.369,   8.554e-5
1.370,   8.640e-5
1.371,   8.671e-5
1.372,   8.781e-5
1.373,   8.868e-5
1.374,   8.918e-5
1.375,   9.038e-5
1.376,   9.131e-5
1.377,   9.214e-5
1.378,   9.335e-5
1.379,   9.432e-5
1.380,   9.545e-5
1.381,   9.689e-5
1.382,   9.817e-5
1.383,   9.964e-5
1.384,   1.011e-4
1.385,   1.028e-4
1.386,   1.048e-4
1.387,   1.060e-4
1.388,   1.083e-4
1.389,   1.110e-4
1.390,   1.123e-4
1.391,   1.155e-4
1.392,   1.175e-4
1.393,   1.209e-4
1.394,   1.234e-4
1.395,   1.268e-4
1.396,   1.306e-4
1.397,   1.342e-4
1.398,   1.375e-4
1.399,   1.420e-4
1.400,   1.466e-4
1.401,   1.519e-4
1.402,   1.572e-4
1.403,   1.626e-4
1.404,   1.684e-4
1.405,   1.746e-4
1.406,   1.811e-4
1.407,   1.898e-4
1.408,   1.961e-4
1.409,   2.050e-4
1.410,   2.140e-4
1.411,   2.228e-4
1.412,   2.324e-4
1.413,   2.451e-4
1.414,   2.547e-4
1.415,   2.661e-4
1.416,   2.801e-4
1.417,   2.935e-4
1.418,   3.081e-4
1.419,   3.228e-4
1.420,   3.382e-4
1.421,   3.550e-4
1.422,   3.727e-4
1.423,   3.932e-4
1.424,   4.138e-4
1.425,   4.322e-4
1.426,   4.522e-4
1.427,   4.811e-4
1.428,   5.022e-4
1.429,   5.275e-4
1.430,   5.571e-4
1.431,   5.818e-4
1.432,   6.179e-4
1.433,   6.446e-4
1.434,   6.805e-4
1.435,   7.145e-4
1.436,   7.462e-4
1.437,   7.913e-4
1.438,   8.229e-4
1.439,   8.682e-4
1.440,   9.114e-4
1.441,   9.511e-4
1.442,   1.005e-3
1.443,   1.047e-3
1.444,   1.104e-3
1.445,   1.155e-3
1.446,   1.213e-3
1.447,   1.270e-3
1.448,   1.333e-3
1.449,   1.394e-3
1.450,   1.466e-3
1.451,   1.535e-3
1.452,   1.608e-3
1.453,   1.688e-3
1.454,   1.770e-3
1.455,   1.853e-3
1.456,   1.940e-3
1.457,   2.031e-3
1.458,   2.125e-3
1.459,   2.225e-3
1.460,   2.328e-3
1.461,   2.437e-3
1.462,   2.562e-3
1.463,   2.684e-3
1.464,   2.809e-3
1.465,   2.936e-3
1.466,   3.066e-3
1.467,   3.198e-3
1.468,   3.341e-3
1.469,   3.491e-3
1.470,   3.644e-3
1.471,   3.798e-3
1.472,   3.961e-3
1.473,   4.166e-3
1.474,   4.360e-3
1.475,   4.531e-3
1.476,   4.703e-3
1.477,   4.896e-3
1.478,   5.074e-3
1.479,   5.301e-3
1.480,   5.573e-3
1.481,   5.778e-3
1.482,   5.991e-3
1.483,   6.204e-3
1.484,   6.424e-3
1.485,   6.642e-3
1.486,   6.844e-3
1.487,   7.069e-3
1.488,   7.279e-3
1.489,   7.541e-3
1.490,   7.908e-3
1.491,   8.299e-3
1.492,   8.562e-3
1.493,   8.943e-3
1.494,   9.157e-3
1.495,   9.731e-3
1.496,   1.006e-2
1.497,   1.006e-2
1.498,   1.006e-2
1.499,   1.006e-2
1.500,   1.006e-2