File: Experimental Records and Raw Data/batch3/final400/B3_BEST_400_#8_High_Quality(#21)-228mV.txt
Feb. 20, 2023   14:35:28
Linear Sweep Voltammetry
File: d:\current work\al_oer\electrochemical test data\batch 3\400\B3_BEST_400_#8_High_Quality(#21)-228mV.txt
Data Source:  Experiment
Instrument Model:  CHI660E
Header:
Note:

Init E (V) = 1.099

Final E (V) = 1.508

Scan Rate (V/s) = 0.010
Sample Interval (V) = 0.001
Quiet Time (sec) = 2
Sensitivity (A/V) = 0.001
Comp R (ohm) = 7.3

Results:

Channel 1:

Potential/V, Current/A
1.099,   2.543e-4
1.100,   2.408e-4
1.101,   2.250e-4
1.102,   2.102e-4
1.103,   1.972e-4
1.104,   1.857e-4
1.105,   1.756e-4
1.106,   1.668e-4
1.107,   1.588e-4
1.108,   1.516e-4
1.109,   1.453e-4
1.110,   1.396e-4
1.111,   1.345e-4
1.112,   1.299e-4
1.113,   1.257e-4
1.114,   1.218e-4
1.115,   1.182e-4
1.116,   1.150e-4
1.117,   1.121e-4
1.118,   1.093e-4
1.119,   1.069e-4
1.120,   1.047e-4
1.121,   1.024e-4
1.122,   1.005e-4
1.123,   9.856e-5
1.124,   9.687e-5
1.125,   9.529e-5
1.126,   9.382e-5
1.127,   9.244e-5
1.128,   9.110e-5
1.129,   8.996e-5
1.130,   8.880e-5
1.131,   8.766e-5
1.132,   8.683e-5
1.133,   8.595e-5
1.134,   8.496e-5
1.135,   8.421e-5
1.136,   8.345e-5
1.137,   8.273e-5
1.138,   8.211e-5
1.139,   8.141e-5
1.140,   8.091e-5
1.141,   8.039e-5
1.142,   7.979e-5
1.143,   7.938e-5
1.144,   7.887e-5
1.145,   7.850e-5
1.146,   7.816e-5
1.147,   7.770e-5
1.148,   7.741e-5
1.149,   7.714e-5
1.150,   7.674e-5
1.151,   7.659e-5
1.152,   7.626e-5
1.153,   7.606e-5
1.154,   7.586e-5
1.155,   7.556e-5
1.156,   7.541e-5
1.157,   7.521e-5
1.158,   7.515e-5
1.159,   7.500e-5
1.160,   7.473e-5
1.161,   7.467e-5
1.162,   7.467e-5
1.163,   7.443e-5
1.164,   7.449e-5
1.165,   7.444e-5
1.166,   7.424e-5
1.167,   7.432e-5
1.168,   7.421e-5
1.169,   7.420e-5
1.170,   7.422e-5
1.171,   7.419e-5
1.172,   7.418e-5
1.173,   7.416e-5
1.174,   7.409e-5
1.175,   7.422e-5
1.176,   7.417e-5
1.177,   7.415e-5
1.178,   7.435e-5
1.179,   7.425e-5
1.180,   7.434e-5
1.181,   7.442e-5
1.182,   7.438e-5
1.183,   7.457e-5
1.184,   7.466e-5
1.185,   7.461e-5
1.186,   7.470e-5
1.187,   7.472e-5
1.188,   7.482e-5
1.189,   7.491e-5
1.190,   7.494e-5
1.191,   7.508e-5
1.192,   7.511e-5
1.193,   7.520e-5
1.194,   7.540e-5
1.195,   7.535e-5
1.196,   7.550e-5
1.197,   7.567e-5
1.198,   7.569e-5
1.199,   7.586e-5
1.200,   7.590e-5
1.201,   7.594e-5
1.202,   7.613e-5
1.203,   7.624e-5
1.204,   7.637e-5
1.205,   7.648e-5
1.206,   7.652e-5
1.207,   7.669e-5
1.208,   7.668e-5
1.209,   7.693e-5
1.210,   7.709e-5
1.211,   7.699e-5
1.212,   7.721e-5
1.213,   7.727e-5
1.214,   7.733e-5
1.215,   7.754e-5
1.216,   7.764e-5
1.217,   7.768e-5
1.218,   7.783e-5
1.219,   7.788e-5
1.220,   7.799e-5
1.221,   7.813e-5
1.222,   7.817e-5
1.223,   7.836e-5
1.224,   7.836e-5
1.225,   7.847e-5
1.226,   7.862e-5
1.227,   7.858e-5
1.228,   7.871e-5
1.229,   7.888e-5
1.230,   7.889e-5
1.231,   7.899e-5
1.232,   7.908e-5
1.233,   7.915e-5
1.234,   7.930e-5
1.235,   7.932e-5
1.236,   7.943e-5
1.237,   7.953e-5
1.238,   7.949e-5
1.239,   7.962e-5
1.240,   7.964e-5
1.241,   7.976e-5
1.242,   7.995e-5
1.243,   7.984e-5
1.244,   7.994e-5
1.245,   7.997e-5
1.246,   8.000e-5
1.247,   8.016e-5
1.248,   8.017e-5
1.249,   8.021e-5
1.250,   8.037e-5
1.251,   8.027e-5
1.252,   8.031e-5
1.253,   8.037e-5
1.254,   8.041e-5
1.255,   8.047e-5
1.256,   8.043e-5
1.257,   8.049e-5
1.258,   8.060e-5
1.259,   8.046e-5
1.260,   8.068e-5
1.261,   8.076e-5
1.262,   8.056e-5
1.263,   8.073e-5
1.264,   8.069e-5
1.265,   8.069e-5
1.266,   8.076e-5
1.267,   8.073e-5
1.268,   8.079e-5
1.269,   8.079e-5
1.270,   8.073e-5
1.271,   8.081e-5
1.272,   8.074e-5
1.273,   8.090e-5
1.274,   8.096e-5
1.275,   8.077e-5
1.276,   8.090e-5
1.277,   8.092e-5
1.278,   8.079e-5
1.279,   8.093e-5
1.280,   8.097e-5
1.281,   8.086e-5
1.282,   8.098e-5
1.283,   8.085e-5
1.284,   8.094e-5
1.285,   8.099e-5
1.286,   8.104e-5
1.287,   8.105e-5
1.288,   8.096e-5
1.289,   8.098e-5
1.290,   8.108e-5
1.291,   8.096e-5
1.292,   8.109e-5
1.293,   8.118e-5
1.294,   8.099e-5
1.295,   8.111e-5
1.296,   8.112e-5
1.297,   8.110e-5
1.298,   8.125e-5
1.299,   8.128e-5
1.300,   8.125e-5
1.301,   8.131e-5
1.302,   8.125e-5
1.303,   8.132e-5
1.304,   8.132e-5
1.305,   8.134e-5
1.306,   8.155e-5
1.307,   8.144e-5
1.308,   8.158e-5
1.309,   8.172e-5
1.310,   8.152e-5
1.311,   8.180e-5
1.312,   8.191e-5
1.313,   8.180e-5
1.314,   8.198e-5
1.315,   8.190e-5
1.316,   8.204e-5
1.317,   8.208e-5
1.318,   8.216e-5
1.319,   8.229e-5
1.320,   8.227e-5
1.321,   8.233e-5
1.322,   8.253e-5
1.323,   8.245e-5
1.324,   8.285e-5
1.325,   8.305e-5
1.326,   8.284e-5
1.327,   8.304e-5
1.328,   8.310e-5
1.329,   8.312e-5
1.330,   8.338e-5
1.331,   8.344e-5
1.332,   8.348e-5
1.333,   8.370e-5
1.334,   8.376e-5
1.335,   8.408e-5
1.336,   8.407e-5
1.337,   8.446e-5
1.338,   8.459e-5
1.339,   8.453e-5
1.340,   8.479e-5
1.341,   8.499e-5
1.342,   8.506e-5
1.343,   8.546e-5
1.344,   8.565e-5
1.345,   8.576e-5
1.346,   8.608e-5
1.347,   8.615e-5
1.348,   8.650e-5
1.349,   8.674e-5
1.350,   8.707e-5
1.351,   8.741e-5
1.352,   8.752e-5
1.353,   8.775e-5
1.354,   8.831e-5
1.355,   8.843e-5
1.356,   8.889e-5
1.357,   8.929e-5
1.358,   8.950e-5
1.359,   9.010e-5
1.360,   9.040e-5
1.361,   9.077e-5
1.362,   9.135e-5
1.363,   9.176e-5
1.364,   9.227e-5
1.365,   9.283e-5
1.366,   9.323e-5
1.367,   9.391e-5
1.368,   9.454e-5
1.369,   9.513e-5
1.370,   9.597e-5
1.371,   9.650e-5
1.372,   9.733e-5
1.373,   9.823e-5
1.374,   9.894e-5
1.375,   1.001e-4
1.376,   1.010e-4
1.377,   1.019e-4
1.378,   1.031e-4
1.379,   1.041e-4
1.380,   1.054e-4
1.381,   1.068e-4
1.382,   1.080e-4
1.383,   1.097e-4
1.384,   1.112e-4
1.385,   1.129e-4
1.386,   1.148e-4
1.387,   1.166e-4
1.388,   1.188e-4
1.389,   1.211e-4
1.390,   1.231e-4
1.391,   1.258e-4
1.392,   1.285e-4
1.393,   1.313e-4
1.394,   1.345e-4
1.395,   1.376e-4
1.396,   1.411e-4
1.397,   1.449e-4
1.398,   1.488e-4
1.399,   1.532e-4
1.400,   1.578e-4
1.401,   1.627e-4
1.402,   1.680e-4
1.403,   1.733e-4
1.404,   1.793e-4
1.405,   1.856e-4
1.406,   1.921e-4
1.407,   1.992e-4
1.408,   2.069e-4
1.409,   2.149e-4
1.410,   2.235e-4
1.411,   2.325e-4
1.412,   2.423e-4
1.413,   2.525e-4
1.414,   2.634e-4
1.415,   2.750e-4
1.416,   2.869e-4
1.417,   2.996e-4
1.418,   3.135e-4
1.419,   3.276e-4
1.420,   3.429e-4
1.421,   3.588e-4
1.422,   3.753e-4
1.423,   3.931e-4
1.424,   4.116e-4
1.425,   4.310e-4
1.426,   4.515e-4
1.427,   4.729e-4
1.428,   4.953e-4
1.429,   5.186e-4
1.430,   5.432e-4
1.431,   5.695e-4
1.432,   5.968e-4
1.433,   6.252e-4
1.434,   6.550e-4
1.435,   6.854e-4
1.436,   7.181e-4
1.437,   7.522e-4
1.438,   7.878e-4
1.439,   8.249e-4
1.440,   8.632e-4
1.441,   9.037e-4
1.442,   9.459e-4
1.443,   9.902e-4
1.444,   1.036e-3
1.445,   1.083e-3
1.446,   1.132e-3
1.447,   1.183e-3
1.448,   1.236e-3
1.449,   1.292e-3
1.450,   1.350e-3
1.451,   1.410e-3
1.452,   1.472e-3
1.453,   1.535e-3
1.454,   1.602e-3
1.455,   1.671e-3
1.456,   1.743e-3
1.457,   1.817e-3
1.458,   1.898e-3
1.459,   1.979e-3
1.460,   2.061e-3
1.461,   2.146e-3
1.462,   2.231e-3
1.463,   2.321e-3
1.464,   2.416e-3
1.465,   2.512e-3
1.466,   2.621e-3
1.467,   2.726e-3
1.468,   2.832e-3
1.469,   2.944e-3
1.470,   3.052e-3
1.471,   3.165e-3
1.472,   3.280e-3
1.473,   3.395e-3
1.474,   3.514e-3
1.475,   3.640e-3
1.476,   3.792e-3
1.477,   3.962e-3
1.478,   4.088e-3
1.479,   4.218e-3
1.480,   4.357e-3
1.481,   4.514e-3
1.482,   4.666e-3
1.483,   4.832e-3
1.484,   4.988e-3
1.485,   5.138e-3
1.486,   5.279e-3
1.487,   5.448e-3
1.488,   5.646e-3
1.489,   5.841e-3
1.490,   6.098e-3
1.491,   6.320e-3
1.492,   6.485e-3
1.493,   6.688e-3
1.494,   6.866e-3
1.495,   7.106e-3
1.496,   7.294e-3
1.497,   7.490e-3
1.498,   7.771e-3
1.499,   7.989e-3
1.500,   8.174e-3
1.501,   8.322e-3
1.502,   8.472e-3
1.503,   8.671e-3
1.504,   9.004e-3
1.505,   9.318e-3
1.506,   9.801e-3
1.507,   1.005e-2
1.508,   1.006e-2