File: Experimental Records and Raw Data/batch3/final400/B3_VARIANCE_400_#4_Full(#12)-273mV.txt
Feb. 21, 2023   16:03:47
Linear Sweep Voltammetry
File: d:\current work\al_oer\electrochemical test data\batch 3\400\B3_VARIANCE_400_#4_Full(#12)-273mV.txt
Data Source:  Experiment
Instrument Model:  CHI660E
Header:
Note:

Init E (V) = 1.090

Final E (V) = 1.789

Scan Rate (V/s) = 0.010
Sample Interval (V) = 0.001
Quiet Time (sec) = 2
Sensitivity (A/V) = 0.001
Comp R (ohm) = 5.2

Results:

Channel 1:
Ep = 1.466V
ip = 8.140e-3A
Ah = 1.825e-1C

Potential/V, Current/A
1.090,   4.797e-5
1.091,   4.552e-5
1.092,   4.250e-5
1.093,   3.970e-5
1.094,   3.736e-5
1.095,   3.526e-5
1.096,   3.331e-5
1.097,   3.162e-5
1.098,   3.010e-5
1.099,   2.869e-5
1.100,   2.748e-5
1.101,   2.635e-5
1.102,   2.532e-5
1.103,   2.437e-5
1.104,   2.353e-5
1.105,   2.279e-5
1.106,   2.201e-5
1.107,   2.137e-5
1.108,   2.077e-5
1.109,   2.023e-5
1.110,   1.971e-5
1.111,   1.925e-5
1.112,   1.877e-5
1.113,   1.838e-5
1.114,   1.799e-5
1.115,   1.765e-5
1.116,   1.729e-5
1.117,   1.694e-5
1.118,   1.669e-5
1.119,   1.642e-5
1.120,   1.617e-5
1.121,   1.594e-5
1.122,   1.569e-5
1.123,   1.547e-5
1.124,   1.526e-5
1.125,   1.505e-5
1.126,   1.488e-5
1.127,   1.470e-5
1.128,   1.450e-5
1.129,   1.439e-5
1.130,   1.423e-5
1.131,   1.411e-5
1.132,   1.395e-5
1.133,   1.381e-5
1.134,   1.371e-5
1.135,   1.361e-5
1.136,   1.354e-5
1.137,   1.344e-5
1.138,   1.333e-5
1.139,   1.324e-5
1.140,   1.316e-5
1.141,   1.308e-5
1.142,   1.298e-5
1.143,   1.295e-5
1.144,   1.284e-5
1.145,   1.280e-5
1.146,   1.274e-5
1.147,   1.266e-5
1.148,   1.261e-5
1.149,   1.257e-5
1.150,   1.253e-5
1.151,   1.246e-5
1.152,   1.243e-5
1.153,   1.239e-5
1.154,   1.234e-5
1.155,   1.232e-5
1.156,   1.231e-5
1.157,   1.222e-5
1.158,   1.217e-5
1.159,   1.219e-5
1.160,   1.215e-5
1.161,   1.213e-5
1.162,   1.210e-5
1.163,   1.206e-5
1.164,   1.205e-5
1.165,   1.205e-5
1.166,   1.203e-5
1.167,   1.199e-5
1.168,   1.196e-5
1.169,   1.197e-5
1.170,   1.194e-5
1.171,   1.193e-5
1.172,   1.191e-5
1.173,   1.192e-5
1.174,   1.192e-5
1.175,   1.191e-5
1.176,   1.187e-5
1.177,   1.188e-5
1.178,   1.186e-5
1.179,   1.185e-5
1.180,   1.187e-5
1.181,   1.185e-5
1.182,   1.186e-5
1.183,   1.184e-5
1.184,   1.183e-5
1.185,   1.187e-5
1.186,   1.183e-5
1.187,   1.185e-5
1.188,   1.187e-5
1.189,   1.185e-5
1.190,   1.185e-5
1.191,   1.181e-5
1.192,   1.183e-5
1.193,   1.188e-5
1.194,   1.187e-5
1.195,   1.187e-5
1.196,   1.185e-5
1.197,   1.187e-5
1.198,   1.190e-5
1.199,   1.186e-5
1.200,   1.186e-5
1.201,   1.190e-5
1.202,   1.186e-5
1.203,   1.190e-5
1.204,   1.193e-5
1.205,   1.190e-5
1.206,   1.192e-5
1.207,   1.194e-5
1.208,   1.194e-5
1.209,   1.197e-5
1.210,   1.195e-5
1.211,   1.198e-5
1.212,   1.199e-5
1.213,   1.199e-5
1.214,   1.202e-5
1.215,   1.200e-5
1.216,   1.203e-5
1.217,   1.204e-5
1.218,   1.201e-5
1.219,   1.206e-5
1.220,   1.207e-5
1.221,   1.207e-5
1.222,   1.211e-5
1.223,   1.210e-5
1.224,   1.211e-5
1.225,   1.213e-5
1.226,   1.215e-5
1.227,   1.215e-5
1.228,   1.216e-5
1.229,   1.215e-5
1.230,   1.213e-5
1.231,   1.219e-5
1.232,   1.223e-5
1.233,   1.226e-5
1.234,   1.225e-5
1.235,   1.226e-5
1.236,   1.222e-5
1.237,   1.225e-5
1.238,   1.227e-5
1.239,   1.230e-5
1.240,   1.231e-5
1.241,   1.235e-5
1.242,   1.232e-5
1.243,   1.234e-5
1.244,   1.237e-5
1.245,   1.236e-5
1.246,   1.244e-5
1.247,   1.244e-5
1.248,   1.238e-5
1.249,   1.243e-5
1.250,   1.244e-5
1.251,   1.247e-5
1.252,   1.251e-5
1.253,   1.250e-5
1.254,   1.253e-5
1.255,   1.254e-5
1.256,   1.255e-5
1.257,   1.254e-5
1.258,   1.256e-5
1.259,   1.260e-5
1.260,   1.259e-5
1.261,   1.259e-5
1.262,   1.264e-5
1.263,   1.267e-5
1.264,   1.270e-5
1.265,   1.272e-5
1.266,   1.274e-5
1.267,   1.274e-5
1.268,   1.275e-5
1.269,   1.272e-5
1.270,   1.278e-5
1.271,   1.283e-5
1.272,   1.282e-5
1.273,   1.283e-5
1.274,   1.284e-5
1.275,   1.290e-5
1.276,   1.286e-5
1.277,   1.294e-5
1.278,   1.293e-5
1.279,   1.294e-5
1.280,   1.297e-5
1.281,   1.299e-5
1.282,   1.296e-5
1.283,   1.301e-5
1.284,   1.308e-5
1.285,   1.306e-5
1.286,   1.311e-5
1.287,   1.312e-5
1.288,   1.313e-5
1.289,   1.315e-5
1.290,   1.316e-5
1.291,   1.317e-5
1.292,   1.325e-5
1.293,   1.325e-5
1.294,   1.327e-5
1.295,   1.330e-5
1.296,   1.329e-5
1.297,   1.334e-5
1.298,   1.332e-5
1.299,   1.337e-5
1.300,   1.340e-5
1.301,   1.339e-5
1.302,   1.343e-5
1.303,   1.352e-5
1.304,   1.348e-5
1.305,   1.351e-5
1.306,   1.358e-5
1.307,   1.358e-5
1.308,   1.364e-5
1.309,   1.363e-5
1.310,   1.366e-5
1.311,   1.372e-5
1.312,   1.372e-5
1.313,   1.378e-5
1.314,   1.377e-5
1.315,   1.388e-5
1.316,   1.388e-5
1.317,   1.386e-5
1.318,   1.394e-5
1.319,   1.393e-5
1.320,   1.393e-5
1.321,   1.403e-5
1.322,   1.406e-5
1.323,   1.412e-5
1.324,   1.414e-5
1.325,   1.416e-5
1.326,   1.421e-5
1.327,   1.423e-5
1.328,   1.429e-5
1.329,   1.432e-5
1.330,   1.433e-5
1.331,   1.441e-5
1.332,   1.448e-5
1.333,   1.447e-5
1.334,   1.457e-5
1.335,   1.460e-5
1.336,   1.457e-5
1.337,   1.468e-5
1.338,   1.474e-5
1.339,   1.478e-5
1.340,   1.482e-5
1.341,   1.485e-5
1.342,   1.496e-5
1.343,   1.500e-5
1.344,   1.507e-5
1.345,   1.515e-5
1.346,   1.520e-5
1.347,   1.527e-5
1.348,   1.535e-5
1.349,   1.537e-5
1.350,   1.551e-5
1.351,   1.555e-5
1.352,   1.565e-5
1.353,   1.573e-5
1.354,   1.582e-5
1.355,   1.596e-5
1.356,   1.607e-5
1.357,   1.614e-5
1.358,   1.628e-5
1.359,   1.636e-5
1.360,   1.652e-5
1.361,   1.661e-5
1.362,   1.675e-5
1.363,   1.690e-5
1.364,   1.706e-5
1.365,   1.723e-5
1.366,   1.747e-5
1.367,   1.761e-5
1.368,   1.781e-5
1.369,   1.803e-5
1.370,   1.828e-5
1.371,   1.850e-5
1.372,   1.877e-5
1.373,   1.903e-5
1.374,   1.934e-5
1.375,   1.963e-5
1.376,   1.998e-5
1.377,   2.036e-5
1.378,   2.074e-5
1.379,   2.116e-5
1.380,   2.160e-5
1.381,   2.204e-5
1.382,   2.256e-5
1.383,   2.308e-5
1.384,   2.365e-5
1.385,   2.430e-5
1.386,   2.493e-5
1.387,   2.564e-5
1.388,   2.642e-5
1.389,   2.714e-5
1.390,   2.798e-5
1.391,   2.890e-5
1.392,   2.987e-5
1.393,   3.089e-5
1.394,   3.193e-5
1.395,   3.307e-5
1.396,   3.430e-5
1.397,   3.558e-5
1.398,   3.696e-5
1.399,   3.828e-5
1.400,   3.975e-5
1.401,   4.139e-5
1.402,   4.304e-5
1.403,   4.483e-5
1.404,   4.674e-5
1.405,   4.875e-5
1.406,   5.084e-5
1.407,   5.304e-5
1.408,   5.534e-5
1.409,   5.779e-5
1.410,   6.036e-5
1.411,   6.310e-5
1.412,   6.592e-5
1.413,   6.883e-5
1.414,   7.200e-5
1.415,   7.529e-5
1.416,   7.876e-5
1.417,   8.237e-5
1.418,   8.608e-5
1.419,   9.000e-5
1.420,   9.405e-5
1.421,   9.828e-5
1.422,   1.027e-4
1.423,   1.074e-4
1.424,   1.123e-4
1.425,   1.173e-4
1.426,   1.226e-4
1.427,   1.281e-4
1.428,   1.338e-4
1.429,   1.397e-4
1.430,   1.459e-4
1.431,   1.523e-4
1.432,   1.591e-4
1.433,   1.661e-4
1.434,   1.733e-4
1.435,   1.808e-4
1.436,   1.886e-4
1.437,   1.967e-4
1.438,   2.050e-4
1.439,   2.138e-4
1.440,   2.229e-4
1.441,   2.323e-4
1.442,   2.421e-4
1.443,   2.523e-4
1.444,   2.628e-4
1.445,   2.736e-4
1.446,   2.849e-4
1.447,   2.966e-4
1.448,   3.087e-4
1.449,   3.214e-4
1.450,   3.343e-4
1.451,   3.478e-4
1.452,   3.617e-4
1.453,   3.760e-4
1.454,   3.909e-4
1.455,   4.064e-4
1.456,   4.223e-4
1.457,   4.388e-4
1.458,   4.558e-4
1.459,   4.735e-4
1.460,   4.917e-4
1.461,   5.103e-4
1.462,   5.296e-4
1.463,   5.496e-4
1.464,   5.702e-4
1.465,   5.915e-4
1.466,   6.133e-4
1.467,   6.360e-4
1.468,   6.591e-4
1.469,   6.830e-4
1.470,   7.077e-4
1.471,   7.328e-4
1.472,   7.586e-4
1.473,   7.852e-4
1.474,   8.124e-4
1.475,   8.402e-4
1.476,   8.687e-4
1.477,   8.979e-4
1.478,   9.278e-4
1.479,   9.583e-4
1.480,   9.896e-4
1.481,   1.022e-3
1.482,   1.054e-3
1.483,   1.088e-3
1.484,   1.122e-3
1.485,   1.156e-3
1.486,   1.192e-3
1.487,   1.228e-3
1.488,   1.265e-3
1.489,   1.303e-3
1.490,   1.341e-3
1.491,   1.380e-3
1.492,   1.420e-3
1.493,   1.461e-3
1.494,   1.502e-3
1.495,   1.543e-3
1.496,   1.586e-3
1.497,   1.629e-3
1.498,   1.673e-3
1.499,   1.718e-3
1.500,   1.763e-3
1.501,   1.809e-3
1.502,   1.855e-3
1.503,   1.903e-3
1.504,   1.951e-3
1.505,   2.000e-3
1.506,   2.048e-3
1.507,   2.098e-3
1.508,   2.149e-3
1.509,   2.199e-3
1.510,   2.250e-3
1.511,   2.303e-3
1.512,   2.355e-3
1.513,   2.409e-3
1.514,   2.463e-3
1.515,   2.517e-3
1.516,   2.571e-3
1.517,   2.627e-3
1.518,   2.683e-3
1.519,   2.738e-3
1.520,   2.796e-3
1.521,   2.854e-3
1.522,   2.911e-3
1.523,   2.969e-3
1.524,   3.027e-3
1.525,   3.085e-3
1.526,   3.143e-3
1.527,   3.202e-3
1.528,   3.261e-3
1.529,   3.321e-3
1.530,   3.382e-3
1.531,   3.441e-3
1.532,   3.502e-3
1.533,   3.564e-3
1.534,   3.626e-3
1.535,   3.687e-3
1.536,   3.750e-3
1.537,   3.811e-3
1.538,   3.873e-3
1.539,   3.936e-3
1.540,   3.999e-3
1.541,   4.064e-3
1.542,   4.127e-3
1.543,   4.189e-3
1.544,   4.255e-3
1.545,   4.319e-3
1.546,   4.384e-3
1.547,   4.449e-3
1.548,   4.514e-3
1.549,   4.579e-3
1.550,   4.643e-3
1.551,   4.707e-3
1.552,   4.771e-3
1.553,   4.840e-3
1.554,   4.906e-3
1.555,   4.969e-3
1.556,   5.033e-3
1.557,   5.099e-3
1.558,   5.168e-3
1.559,   5.233e-3
1.560,   5.298e-3
1.561,   5.360e-3
1.562,   5.422e-3
1.563,   5.486e-3
1.564,   5.546e-3
1.565,   5.607e-3
1.566,   5.669e-3
1.567,   5.740e-3
1.568,   5.805e-3
1.569,   5.870e-3
1.570,   5.930e-3
1.571,   5.988e-3
1.572,   6.045e-3
1.573,   6.109e-3
1.574,   6.174e-3
1.575,   6.229e-3
1.576,   6.283e-3
1.577,   6.339e-3
1.578,   6.405e-3
1.579,   6.465e-3
1.580,   6.521e-3
1.581,   6.575e-3
1.582,   6.628e-3
1.583,   6.684e-3
1.584,   6.737e-3
1.585,   6.789e-3
1.586,   6.843e-3
1.587,   6.903e-3
1.588,   6.953e-3
1.589,   6.999e-3
1.590,   7.048e-3
1.591,   7.098e-3
1.592,   7.144e-3
1.593,   7.194e-3
1.594,   7.242e-3
1.595,   7.288e-3
1.596,   7.333e-3
1.597,   7.383e-3
1.598,   7.431e-3
1.599,   7.469e-3
1.600,   7.509e-3
1.601,   7.551e-3
1.602,   7.589e-3
1.603,   7.640e-3
1.604,   7.681e-3
1.605,   7.722e-3
1.606,   7.762e-3
1.607,   7.798e-3
1.608,   7.827e-3
1.609,   7.863e-3
1.610,   7.902e-3
1.611,   7.941e-3
1.612,   7.981e-3
1.613,   8.010e-3
1.614,   8.036e-3
1.615,   8.064e-3
1.616,   8.103e-3
1.617,   8.133e-3
1.618,   8.158e-3
1.619,   8.203e-3
1.620,   8.257e-3
1.621,   8.278e-3
1.622,   8.294e-3
1.623,   8.304e-3
1.624,   8.315e-3
1.625,   8.331e-3
1.626,   8.344e-3
1.627,   8.354e-3
1.628,   8.366e-3
1.629,   8.391e-3
1.630,   8.412e-3
1.631,   8.430e-3
1.632,   8.439e-3
1.633,   8.449e-3
1.634,   8.458e-3
1.635,   8.465e-3
1.636,   8.470e-3
1.637,   8.475e-3
1.638,   8.488e-3
1.639,   8.491e-3
1.640,   8.497e-3
1.641,   8.498e-3
1.642,   8.498e-3
1.643,   8.498e-3
1.644,   8.502e-3
1.645,   8.503e-3
1.646,   8.505e-3
1.647,   8.507e-3
1.648,   8.511e-3
1.649,   8.507e-3
1.650,   8.504e-3
1.651,   8.498e-3
1.652,   8.492e-3
1.653,   8.490e-3
1.654,   8.589e-3
1.655,   8.592e-3
1.656,   8.569e-3
1.657,   8.549e-3
1.658,   8.528e-3
1.659,   8.509e-3
1.660,   8.501e-3
1.661,   8.489e-3
1.662,   8.476e-3
1.663,   8.452e-3
1.664,   8.432e-3
1.665,   8.409e-3
1.666,   8.385e-3
1.667,   8.365e-3
1.668,   8.347e-3
1.669,   8.437e-3
1.670,   8.518e-3
1.671,   8.485e-3
1.672,   8.434e-3
1.673,   8.391e-3
1.674,   8.349e-3
1.675,   8.307e-3
1.676,   8.270e-3
1.677,   8.235e-3
1.678,   8.200e-3
1.679,   8.160e-3
1.680,   8.123e-3
1.681,   8.085e-3
1.682,   8.051e-3
1.683,   8.014e-3
1.684,   7.974e-3
1.685,   7.937e-3
1.686,   7.899e-3
1.687,   7.859e-3
1.688,   7.825e-3
1.689,   7.787e-3
1.690,   7.749e-3
1.691,   7.714e-3
1.692,   7.681e-3
1.693,   7.643e-3
1.694,   7.601e-3
1.695,   7.562e-3
1.696,   7.555e-3
1.697,   7.611e-3
1.698,   7.578e-3
1.699,   7.522e-3
1.700,   7.470e-3
1.701,   7.421e-3
1.702,   7.379e-3
1.703,   7.333e-3
1.704,   7.285e-3
1.705,   7.239e-3
1.706,   7.191e-3
1.707,   7.142e-3
1.708,   7.097e-3
1.709,   7.051e-3
1.710,   7.005e-3
1.711,   6.960e-3
1.712,   6.915e-3
1.713,   6.871e-3
1.714,   6.823e-3
1.715,   6.779e-3
1.716,   6.732e-3
1.717,   6.687e-3
1.718,   6.643e-3
1.719,   6.595e-3
1.720,   6.547e-3
1.721,   6.502e-3
1.722,   6.458e-3
1.723,   6.411e-3
1.724,   6.362e-3
1.725,   6.318e-3
1.726,   6.274e-3
1.727,   6.230e-3
1.728,   6.183e-3
1.729,   6.133e-3
1.730,   6.087e-3
1.731,   6.041e-3
1.732,   5.996e-3
1.733,   5.949e-3
1.734,   5.903e-3
1.735,   5.857e-3
1.736,   5.811e-3
1.737,   5.765e-3
1.738,   5.718e-3
1.739,   5.673e-3
1.740,   5.627e-3
1.741,   5.581e-3
1.742,   5.536e-3
1.743,   5.492e-3
1.744,   5.446e-3
1.745,   5.402e-3
1.746,   5.356e-3
1.747,   5.309e-3
1.748,   5.266e-3
1.749,   5.223e-3
1.750,   5.177e-3
1.751,   5.134e-3
1.752,   5.089e-3
1.753,   5.045e-3
1.754,   5.000e-3
1.755,   4.955e-3
1.756,   4.912e-3
1.757,   4.868e-3
1.758,   4.824e-3
1.759,   4.780e-3
1.760,   4.736e-3
1.761,   4.693e-3
1.762,   4.651e-3
1.763,   4.607e-3
1.764,   4.565e-3
1.765,   4.523e-3
1.766,   4.483e-3
1.767,   4.442e-3
1.768,   4.400e-3
1.769,   4.357e-3
1.770,   4.315e-3
1.771,   4.274e-3
1.772,   4.232e-3
1.773,   4.192e-3
1.774,   4.150e-3
1.775,   4.107e-3
1.776,   4.066e-3
1.777,   4.025e-3
1.778,   3.985e-3
1.779,   3.948e-3
1.780,   3.910e-3
1.781,   3.871e-3
1.782,   3.831e-3
1.783,   3.792e-3
1.784,   3.753e-3
1.785,   3.714e-3
1.786,   3.675e-3
1.787,   3.645e-3
1.788,   3.612e-3
1.789,   3.573e-3