File: Experimental Records and Raw Data/batch3/final400/B3_VARIANCE_400_#5_High_Quality(#26)-211mV.txt
Feb. 21, 2023   17:00:20
Linear Sweep Voltammetry
File: d:\current work\al_oer\electrochemical test data\batch 3\400\B3_VARIANCE_400_#5_High_Quality(#26)-211mV.txt
Data Source:  Experiment
Instrument Model:  CHI660E
Header:
Note:

Init E (V) = 1.128

Final E (V) = 1.495

Scan Rate (V/s) = 0.010
Sample Interval (V) = 0.001
Quiet Time (sec) = 2
Sensitivity (A/V) = 0.001
Comp R (ohm) = 5.9

Results:

Channel 1:

Potential/V, Current/A
1.128,   2.819e-3
1.129,   2.358e-3
1.130,   2.022e-3
1.131,   1.768e-3
1.132,   1.572e-3
1.133,   1.415e-3
1.134,   1.288e-3
1.135,   1.181e-3
1.136,   1.093e-3
1.137,   1.017e-3
1.138,   9.532e-4
1.139,   8.973e-4
1.140,   8.491e-4
1.141,   8.066e-4
1.142,   7.688e-4
1.143,   7.354e-4
1.144,   7.053e-4
1.145,   6.777e-4
1.146,   6.530e-4
1.147,   6.303e-4
1.148,   6.107e-4
1.149,   5.920e-4
1.150,   5.738e-4
1.151,   5.579e-4
1.152,   5.432e-4
1.153,   5.300e-4
1.154,   5.174e-4
1.155,   5.055e-4
1.156,   4.940e-4
1.157,   4.833e-4
1.158,   4.737e-4
1.159,   4.649e-4
1.160,   4.559e-4
1.161,   4.485e-4
1.162,   4.414e-4
1.163,   4.338e-4
1.164,   4.272e-4
1.165,   4.209e-4
1.166,   4.148e-4
1.167,   4.092e-4
1.168,   4.036e-4
1.169,   3.982e-4
1.170,   3.932e-4
1.171,   3.887e-4
1.172,   3.845e-4
1.173,   3.798e-4
1.174,   3.758e-4
1.175,   3.728e-4
1.176,   3.693e-4
1.177,   3.658e-4
1.178,   3.623e-4
1.179,   3.587e-4
1.180,   3.563e-4
1.181,   3.536e-4
1.182,   3.512e-4
1.183,   3.490e-4
1.184,   3.461e-4
1.185,   3.439e-4
1.186,   3.417e-4
1.187,   3.397e-4
1.188,   3.379e-4
1.189,   3.355e-4
1.190,   3.340e-4
1.191,   3.327e-4
1.192,   3.305e-4
1.193,   3.293e-4
1.194,   3.279e-4
1.195,   3.258e-4
1.196,   3.245e-4
1.197,   3.230e-4
1.198,   3.217e-4
1.199,   3.205e-4
1.200,   3.193e-4
1.201,   3.184e-4
1.202,   3.173e-4
1.203,   3.160e-4
1.204,   3.152e-4
1.205,   3.139e-4
1.206,   3.129e-4
1.207,   3.124e-4
1.208,   3.110e-4
1.209,   3.103e-4
1.210,   3.099e-4
1.211,   3.092e-4
1.212,   3.088e-4
1.213,   3.082e-4
1.214,   3.072e-4
1.215,   3.068e-4
1.216,   3.060e-4
1.217,   3.053e-4
1.218,   3.049e-4
1.219,   3.048e-4
1.220,   3.047e-4
1.221,   3.040e-4
1.222,   3.034e-4
1.223,   3.034e-4
1.224,   3.027e-4
1.225,   3.026e-4
1.226,   3.026e-4
1.227,   3.018e-4
1.228,   3.018e-4
1.229,   3.013e-4
1.230,   3.009e-4
1.231,   3.011e-4
1.232,   3.005e-4
1.233,   3.004e-4
1.234,   3.003e-4
1.235,   3.000e-4
1.236,   3.000e-4
1.237,   2.998e-4
1.238,   3.000e-4
1.239,   3.001e-4
1.240,   2.994e-4
1.241,   2.995e-4
1.242,   2.993e-4
1.243,   2.990e-4
1.244,   2.994e-4
1.245,   2.993e-4
1.246,   2.986e-4
1.247,   2.990e-4
1.248,   2.985e-4
1.249,   2.987e-4
1.250,   2.988e-4
1.251,   2.989e-4
1.252,   2.993e-4
1.253,   2.990e-4
1.254,   2.992e-4
1.255,   2.994e-4
1.256,   2.991e-4
1.257,   2.993e-4
1.258,   2.994e-4
1.259,   2.991e-4
1.260,   2.994e-4
1.261,   2.994e-4
1.262,   2.993e-4
1.263,   2.997e-4
1.264,   2.999e-4
1.265,   2.999e-4
1.266,   3.000e-4
1.267,   2.999e-4
1.268,   3.003e-4
1.269,   3.001e-4
1.270,   3.005e-4
1.271,   3.006e-4
1.272,   3.002e-4
1.273,   3.007e-4
1.274,   3.009e-4
1.275,   3.004e-4
1.276,   3.011e-4
1.277,   3.014e-4
1.278,   3.012e-4
1.279,   3.015e-4
1.280,   3.010e-4
1.281,   3.013e-4
1.282,   3.015e-4
1.283,   3.015e-4
1.284,   3.019e-4
1.285,   3.017e-4
1.286,   3.020e-4
1.287,   3.027e-4
1.288,   3.021e-4
1.289,   3.026e-4
1.290,   3.029e-4
1.291,   3.025e-4
1.292,   3.032e-4
1.293,   3.032e-4
1.294,   3.031e-4
1.295,   3.036e-4
1.296,   3.036e-4
1.297,   3.040e-4
1.298,   3.043e-4
1.299,   3.042e-4
1.300,   3.047e-4
1.301,   3.047e-4
1.302,   3.052e-4
1.303,   3.058e-4
1.304,   3.051e-4
1.305,   3.056e-4
1.306,   3.060e-4
1.307,   3.057e-4
1.308,   3.065e-4
1.309,   3.064e-4
1.310,   3.066e-4
1.311,   3.075e-4
1.312,   3.074e-4
1.313,   3.077e-4
1.314,   3.080e-4
1.315,   3.083e-4
1.316,   3.093e-4
1.317,   3.089e-4
1.318,   3.092e-4
1.319,   3.100e-4
1.320,   3.097e-4
1.321,   3.105e-4
1.322,   3.114e-4
1.323,   3.112e-4
1.324,   3.119e-4
1.325,   3.121e-4
1.326,   3.125e-4
1.327,   3.133e-4
1.328,   3.138e-4
1.329,   3.142e-4
1.330,   3.150e-4
1.331,   3.151e-4
1.332,   3.162e-4
1.333,   3.164e-4
1.334,   3.175e-4
1.335,   3.185e-4
1.336,   3.180e-4
1.337,   3.190e-4
1.338,   3.198e-4
1.339,   3.197e-4
1.340,   3.207e-4
1.341,   3.214e-4
1.342,   3.217e-4
1.343,   3.231e-4
1.344,   3.232e-4
1.345,   3.240e-4
1.346,   3.249e-4
1.347,   3.255e-4
1.348,   3.268e-4
1.349,   3.272e-4
1.350,   3.283e-4
1.351,   3.293e-4
1.352,   3.297e-4
1.353,   3.316e-4
1.354,   3.330e-4
1.355,   3.328e-4
1.356,   3.343e-4
1.357,   3.352e-4
1.358,   3.363e-4
1.359,   3.375e-4
1.360,   3.383e-4
1.361,   3.400e-4
1.362,   3.410e-4
1.363,   3.420e-4
1.364,   3.437e-4
1.365,   3.451e-4
1.366,   3.471e-4
1.367,   3.489e-4
1.368,   3.495e-4
1.369,   3.515e-4
1.370,   3.530e-4
1.371,   3.543e-4
1.372,   3.569e-4
1.373,   3.584e-4
1.374,   3.600e-4
1.375,   3.623e-4
1.376,   3.644e-4
1.377,   3.672e-4
1.378,   3.693e-4
1.379,   3.717e-4
1.380,   3.744e-4
1.381,   3.768e-4
1.382,   3.797e-4
1.383,   3.829e-4
1.384,   3.854e-4
1.385,   3.884e-4
1.386,   3.926e-4
1.387,   3.956e-4
1.388,   3.999e-4
1.389,   4.038e-4
1.390,   4.080e-4
1.391,   4.131e-4
1.392,   4.175e-4
1.393,   4.222e-4
1.394,   4.274e-4
1.395,   4.325e-4
1.396,   4.390e-4
1.397,   4.447e-4
1.398,   4.514e-4
1.399,   4.589e-4
1.400,   4.655e-4
1.401,   4.736e-4
1.402,   4.820e-4
1.403,   4.905e-4
1.404,   5.009e-4
1.405,   5.110e-4
1.406,   5.214e-4
1.407,   5.336e-4
1.408,   5.453e-4
1.409,   5.585e-4
1.410,   5.723e-4
1.411,   5.869e-4
1.412,   6.033e-4
1.413,   6.199e-4
1.414,   6.380e-4
1.415,   6.577e-4
1.416,   6.770e-4
1.417,   7.000e-4
1.418,   7.234e-4
1.419,   7.472e-4
1.420,   7.745e-4
1.421,   8.023e-4
1.422,   8.329e-4
1.423,   8.657e-4
1.424,   8.993e-4
1.425,   9.355e-4
1.426,   9.732e-4
1.427,   1.014e-3
1.428,   1.058e-3
1.429,   1.103e-3
1.430,   1.151e-3
1.431,   1.202e-3
1.432,   1.255e-3
1.433,   1.312e-3
1.434,   1.372e-3
1.435,   1.434e-3
1.436,   1.502e-3
1.437,   1.572e-3
1.438,   1.646e-3
1.439,   1.725e-3
1.440,   1.806e-3
1.441,   1.893e-3
1.442,   1.982e-3
1.443,   2.076e-3
1.444,   2.175e-3
1.445,   2.276e-3
1.446,   2.382e-3
1.447,   2.493e-3
1.448,   2.614e-3
1.449,   2.745e-3
1.450,   2.872e-3
1.451,   3.001e-3
1.452,   3.137e-3
1.453,   3.277e-3
1.454,   3.423e-3
1.455,   3.574e-3
1.456,   3.729e-3
1.457,   3.889e-3
1.458,   4.053e-3
1.459,   4.221e-3
1.460,   4.398e-3
1.461,   4.584e-3
1.462,   4.771e-3
1.463,   4.961e-3
1.464,   5.153e-3
1.465,   5.353e-3
1.466,   5.563e-3
1.467,   5.847e-3
1.468,   6.117e-3
1.469,   6.335e-3
1.470,   6.554e-3
1.471,   6.785e-3
1.472,   7.041e-3
1.473,   7.274e-3
1.474,   7.565e-3
1.475,   8.248e-3
1.476,   8.852e-3
1.477,   9.102e-3
1.478,   9.352e-3
1.479,   9.597e-3
1.480,   9.845e-3
1.481,   1.004e-2
1.482,   1.006e-2
1.483,   1.006e-2
1.484,   1.006e-2
1.485,   1.006e-2
1.486,   1.006e-2
1.487,   1.006e-2
1.488,   1.006e-2
1.489,   1.006e-2
1.490,   1.006e-2
1.491,   1.006e-2
1.492,   1.006e-2
1.493,   1.006e-2
1.494,   1.006e-2
1.495,   1.006e-2