File: Experimental Records and Raw Data/batch3/final400/B3_VARIANCE_400_#5_Full(#13)-212mV.txt
Feb. 20, 2023   15:36:19
Linear Sweep Voltammetry
File: d:\current work\al_oer\electrochemical test data\batch 3\400\B3_VARIANCE_400_#5_Full(#13)-212mV.txt
Data Source:  Experiment
Instrument Model:  CHI660E
Header:
Note:

Init E (V) = 1.099

Final E (V) = 1.470

Scan Rate (V/s) = 0.010
Sample Interval (V) = 0.001
Quiet Time (sec) = 2
Sensitivity (A/V) = 0.001
Comp R (ohm) = 5.6

Results:

Channel 1:

Potential/V, Current/A
1.099,   1.624e-4
1.100,   1.872e-4
1.101,   1.822e-4
1.102,   1.757e-4
1.103,   1.708e-4
1.104,   1.663e-4
1.105,   1.620e-4
1.106,   1.589e-4
1.107,   1.557e-4
1.108,   1.528e-4
1.109,   1.505e-4
1.110,   1.478e-4
1.111,   1.462e-4
1.112,   1.443e-4
1.113,   1.427e-4
1.114,   1.415e-4
1.115,   1.398e-4
1.116,   1.389e-4
1.117,   1.381e-4
1.118,   1.367e-4
1.119,   1.365e-4
1.120,   1.360e-4
1.121,   1.348e-4
1.122,   1.346e-4
1.123,   1.337e-4
1.124,   1.332e-4
1.125,   1.333e-4
1.126,   1.325e-4
1.127,   1.325e-4
1.128,   1.325e-4
1.129,   1.319e-4
1.130,   1.323e-4
1.131,   1.313e-4
1.132,   1.326e-4
1.133,   1.318e-4
1.134,   1.321e-4
1.135,   1.321e-4
1.136,   1.317e-4
1.137,   1.326e-4
1.138,   1.331e-4
1.139,   1.322e-4
1.140,   1.326e-4
1.141,   1.335e-4
1.142,   1.336e-4
1.143,   1.343e-4
1.144,   1.344e-4
1.145,   1.350e-4
1.146,   1.350e-4
1.147,   1.351e-4
1.148,   1.361e-4
1.149,   1.354e-4
1.150,   1.363e-4
1.151,   1.371e-4
1.152,   1.391e-4
1.153,   1.386e-4
1.154,   1.391e-4
1.155,   1.367e-4
1.156,   1.423e-4
1.157,   1.420e-4
1.158,   1.382e-4
1.159,   1.445e-4
1.160,   1.435e-4
1.161,   1.402e-4
1.162,   1.469e-4
1.163,   1.413e-4
1.164,   1.495e-4
1.165,   1.433e-4
1.166,   1.499e-4
1.167,   1.442e-4
1.168,   1.499e-4
1.169,   1.479e-4
1.170,   1.497e-4
1.171,   1.562e-4
1.172,   1.485e-4
1.173,   1.508e-4
1.174,   1.565e-4
1.175,   1.560e-4
1.176,   1.518e-4
1.177,   1.558e-4
1.178,   1.622e-4
1.179,   1.634e-4
1.180,   1.588e-4
1.181,   1.574e-4
1.182,   1.584e-4
1.183,   1.646e-4
1.184,   1.631e-4
1.185,   1.608e-4
1.186,   1.686e-4
1.187,   1.670e-4
1.188,   1.629e-4
1.189,   1.726e-4
1.190,   1.681e-4
1.191,   1.716e-4
1.192,   1.758e-4
1.193,   1.666e-4
1.194,   1.753e-4
1.195,   1.660e-4
1.196,   1.730e-4
1.197,   1.734e-4
1.198,   1.733e-4
1.199,   1.838e-4
1.200,   1.780e-4
1.201,   1.873e-4
1.202,   1.733e-4
1.203,   1.788e-4
1.204,   1.728e-4
1.205,   1.877e-4
1.206,   1.849e-4
1.207,   1.912e-4
1.208,   1.753e-4
1.209,   1.801e-4
1.210,   1.830e-4
1.211,   1.913e-4
1.212,   1.903e-4
1.213,   1.791e-4
1.214,   1.846e-4
1.215,   1.865e-4
1.216,   2.015e-4
1.217,   1.787e-4
1.218,   1.836e-4
1.219,   1.889e-4
1.220,   1.946e-4
1.221,   1.893e-4
1.222,   1.767e-4
1.223,   1.975e-4
1.224,   1.945e-4
1.225,   1.809e-4
1.226,   1.864e-4
1.227,   1.923e-4
1.228,   1.964e-4
1.229,   1.788e-4
1.230,   1.840e-4
1.231,   2.025e-4
1.232,   1.804e-4
1.233,   1.804e-4
1.234,   1.973e-4
1.235,   1.895e-4
1.236,   1.807e-4
1.237,   1.813e-4
1.238,   1.941e-4
1.239,   1.895e-4
1.240,   1.725e-4
1.241,   1.911e-4
1.242,   1.924e-4
1.243,   1.727e-4
1.244,   1.833e-4
1.245,   1.881e-4
1.246,   1.880e-4
1.247,   1.741e-4
1.248,   1.752e-4
1.249,   1.941e-4
1.250,   1.771e-4
1.251,   1.705e-4
1.252,   1.846e-4
1.253,   1.826e-4
1.254,   1.790e-4
1.255,   1.649e-4
1.256,   1.795e-4
1.257,   1.864e-4
1.258,   1.678e-4
1.259,   1.729e-4
1.260,   1.704e-4
1.261,   1.843e-4
1.262,   1.696e-4
1.263,   1.605e-4
1.264,   1.748e-4
1.265,   1.736e-4
1.266,   1.781e-4
1.267,   1.567e-4
1.268,   1.676e-4
1.269,   1.680e-4
1.270,   1.736e-4
1.271,   1.663e-4
1.272,   1.544e-4
1.273,   1.657e-4
1.274,   1.629e-4
1.275,   1.762e-4
1.276,   1.550e-4
1.277,   1.626e-4
1.278,   1.507e-4
1.279,   1.680e-4
1.280,   1.601e-4
1.281,   1.677e-4
1.282,   1.492e-4
1.283,   1.545e-4
1.284,   1.502e-4
1.285,   1.625e-4
1.286,   1.562e-4
1.287,   1.631e-4
1.288,   1.472e-4
1.289,   1.541e-4
1.290,   1.445e-4
1.291,   1.566e-4
1.292,   1.503e-4
1.293,   1.622e-4
1.294,   1.479e-4
1.295,   1.539e-4
1.296,   1.391e-4
1.297,   1.523e-4
1.298,   1.410e-4
1.299,   1.555e-4
1.300,   1.454e-4
1.301,   1.544e-4
1.302,   1.485e-4
1.303,   1.443e-4
1.304,   1.445e-4
1.305,   1.391e-4
1.306,   1.479e-4
1.307,   1.373e-4
1.308,   1.518e-4
1.309,   1.404e-4
1.310,   1.530e-4
1.311,   1.436e-4
1.312,   1.435e-4
1.313,   1.419e-4
1.314,   1.361e-4
1.315,   1.447e-4
1.316,   1.333e-4
1.317,   1.482e-4
1.318,   1.360e-4
1.319,   1.465e-4
1.320,   1.438e-4
1.321,   1.400e-4
1.322,   1.498e-4
1.323,   1.319e-4
1.324,   1.458e-4
1.325,   1.344e-4
1.326,   1.387e-4
1.327,   1.385e-4
1.328,   1.361e-4
1.329,   1.440e-4
1.330,   1.356e-4
1.331,   1.481e-4
1.332,   1.392e-4
1.333,   1.449e-4
1.334,   1.402e-4
1.335,   1.340e-4
1.336,   1.425e-4
1.337,   1.302e-4
1.338,   1.439e-4
1.339,   1.343e-4
1.340,   1.436e-4
1.341,   1.429e-4
1.342,   1.428e-4
1.343,   1.465e-4
1.344,   1.382e-4
1.345,   1.408e-4
1.346,   1.329e-4
1.347,   1.437e-4
1.348,   1.343e-4
1.349,   1.507e-4
1.350,   1.413e-4
1.351,   1.524e-4
1.352,   1.353e-4
1.353,   1.439e-4
1.354,   1.341e-4
1.355,   1.462e-4
1.356,   1.447e-4
1.357,   1.546e-4
1.358,   1.442e-4
1.359,   1.437e-4
1.360,   1.358e-4
1.361,   1.508e-4
1.362,   1.485e-4
1.363,   1.610e-4
1.364,   1.397e-4
1.365,   1.499e-4
1.366,   1.453e-4
1.367,   1.637e-4
1.368,   1.532e-4
1.369,   1.436e-4
1.370,   1.574e-4
1.371,   1.610e-4
1.372,   1.610e-4
1.373,   1.483e-4
1.374,   1.580e-4
1.375,   1.773e-4
1.376,   1.533e-4
1.377,   1.604e-4
1.378,   1.816e-4
1.379,   1.569e-4
1.380,   1.684e-4
1.381,   1.888e-4
1.382,   1.607e-4
1.383,   1.806e-4
1.384,   1.860e-4
1.385,   1.767e-4
1.386,   1.981e-4
1.387,   1.740e-4
1.388,   2.077e-4
1.389,   1.881e-4
1.390,   2.143e-4
1.391,   1.935e-4
1.392,   2.190e-4
1.393,   2.042e-4
1.394,   2.342e-4
1.395,   2.120e-4
1.396,   2.470e-4
1.397,   2.287e-4
1.398,   2.494e-4
1.399,   2.620e-4
1.400,   2.446e-4
1.401,   2.813e-4
1.402,   2.804e-4
1.403,   2.746e-4
1.404,   3.005e-4
1.405,   3.186e-4
1.406,   3.156e-4
1.407,   3.226e-4
1.408,   3.425e-4
1.409,   3.688e-4
1.410,   3.829e-4
1.411,   3.928e-4
1.412,   4.019e-4
1.413,   4.189e-4
1.414,   4.420e-4
1.415,   4.600e-4
1.416,   4.843e-4
1.417,   5.120e-4
1.418,   5.309e-4
1.419,   5.612e-4
1.420,   5.901e-4
1.421,   6.209e-4
1.422,   6.517e-4
1.423,   6.745e-4
1.424,   7.041e-4
1.425,   7.408e-4
1.426,   7.997e-4
1.427,   8.424e-4
1.428,   8.832e-4
1.429,   8.968e-4
1.430,   9.934e-4
1.431,   1.033e-3
1.432,   1.059e-3
1.433,   1.168e-3
1.434,   1.213e-3
1.435,   1.268e-3
1.436,   1.371e-3
1.437,   1.401e-3
1.438,   1.534e-3
1.439,   1.559e-3
1.440,   1.702e-3
1.441,   1.786e-3
1.442,   1.864e-3
1.443,   2.034e-3
1.444,   2.097e-3
1.445,   2.222e-3
1.446,   2.394e-3
1.447,   2.531e-3
1.448,   2.659e-3
1.449,   2.816e-3
1.450,   3.016e-3
1.451,   3.227e-3
1.452,   3.447e-3
1.453,   3.693e-3
1.454,   3.930e-3
1.455,   4.175e-3
1.456,   4.450e-3
1.457,   4.757e-3
1.458,   5.103e-3
1.459,   5.453e-3
1.460,   5.807e-3
1.461,   6.202e-3
1.462,   6.624e-3
1.463,   7.077e-3
1.464,   7.512e-3
1.465,   8.003e-3
1.466,   8.537e-3
1.467,   9.040e-3
1.468,   9.636e-3
1.469,   1.004e-2
1.470,   1.006e-2