File: Experimental Records and Raw Data/batch3/final400/B3_VARIANCE_400_#4_High_Quality(#25)-237mV.txt
Feb. 20, 2023   15:09:46
Linear Sweep Voltammetry
File: d:\current work\al_oer\electrochemical test data\batch 3\400\B3_VARIANCE_400_#4_High_Quality(#25)-237mV.txt
Data Source:  Experiment
Instrument Model:  CHI660E
Header:
Note:

Init E (V) = 1.099

Final E (V) = 1.513

Scan Rate (V/s) = 0.010
Sample Interval (V) = 0.001
Quiet Time (sec) = 2
Sensitivity (A/V) = 0.001
Comp R (ohm) = 6.1

Results:

Channel 1:

Potential/V, Current/A
1.099,   1.921e-4
1.100,   1.823e-4
1.101,   1.718e-4
1.102,   1.623e-4
1.103,   1.538e-4
1.104,   1.461e-4
1.105,   1.392e-4
1.106,   1.332e-4
1.107,   1.276e-4
1.108,   1.226e-4
1.109,   1.179e-4
1.110,   1.137e-4
1.111,   1.098e-4
1.112,   1.062e-4
1.113,   1.030e-4
1.114,   9.996e-5
1.115,   9.711e-5
1.116,   9.455e-5
1.117,   9.209e-5
1.118,   8.980e-5
1.119,   8.773e-5
1.120,   8.578e-5
1.121,   8.383e-5
1.122,   8.211e-5
1.123,   8.046e-5
1.124,   7.894e-5
1.125,   7.753e-5
1.126,   7.608e-5
1.127,   7.473e-5
1.128,   7.351e-5
1.129,   7.234e-5
1.130,   7.128e-5
1.131,   7.023e-5
1.132,   6.928e-5
1.133,   6.835e-5
1.134,   6.746e-5
1.135,   6.663e-5
1.136,   6.582e-5
1.137,   6.506e-5
1.138,   6.438e-5
1.139,   6.366e-5
1.140,   6.303e-5
1.141,   6.242e-5
1.142,   6.181e-5
1.143,   6.128e-5
1.144,   6.076e-5
1.145,   6.030e-5
1.146,   5.981e-5
1.147,   5.931e-5
1.148,   5.893e-5
1.149,   5.849e-5
1.150,   5.809e-5
1.151,   5.776e-5
1.152,   5.740e-5
1.153,   5.706e-5
1.154,   5.677e-5
1.155,   5.645e-5
1.156,   5.619e-5
1.157,   5.591e-5
1.158,   5.566e-5
1.159,   5.544e-5
1.160,   5.515e-5
1.161,   5.495e-5
1.162,   5.479e-5
1.163,   5.456e-5
1.164,   5.446e-5
1.165,   5.432e-5
1.166,   5.407e-5
1.167,   5.394e-5
1.168,   5.380e-5
1.169,   5.366e-5
1.170,   5.356e-5
1.171,   5.344e-5
1.172,   5.329e-5
1.173,   5.318e-5
1.174,   5.306e-5
1.175,   5.303e-5
1.176,   5.293e-5
1.177,   5.288e-5
1.178,   5.282e-5
1.179,   5.272e-5
1.180,   5.269e-5
1.181,   5.267e-5
1.182,   5.258e-5
1.183,   5.262e-5
1.184,   5.255e-5
1.185,   5.252e-5
1.186,   5.251e-5
1.187,   5.248e-5
1.188,   5.250e-5
1.189,   5.247e-5
1.190,   5.247e-5
1.191,   5.250e-5
1.192,   5.250e-5
1.193,   5.252e-5
1.194,   5.255e-5
1.195,   5.248e-5
1.196,   5.259e-5
1.197,   5.268e-5
1.198,   5.259e-5
1.199,   5.269e-5
1.200,   5.273e-5
1.201,   5.271e-5
1.202,   5.278e-5
1.203,   5.284e-5
1.204,   5.287e-5
1.205,   5.288e-5
1.206,   5.292e-5
1.207,   5.304e-5
1.208,   5.307e-5
1.209,   5.315e-5
1.210,   5.325e-5
1.211,   5.322e-5
1.212,   5.334e-5
1.213,   5.338e-5
1.214,   5.342e-5
1.215,   5.358e-5
1.216,   5.361e-5
1.217,   5.368e-5
1.218,   5.376e-5
1.219,   5.382e-5
1.220,   5.390e-5
1.221,   5.398e-5
1.222,   5.403e-5
1.223,   5.417e-5
1.224,   5.421e-5
1.225,   5.422e-5
1.226,   5.436e-5
1.227,   5.438e-5
1.228,   5.452e-5
1.229,   5.464e-5
1.230,   5.466e-5
1.231,   5.475e-5
1.232,   5.484e-5
1.233,   5.489e-5
1.234,   5.498e-5
1.235,   5.510e-5
1.236,   5.519e-5
1.237,   5.523e-5
1.238,   5.530e-5
1.239,   5.545e-5
1.240,   5.551e-5
1.241,   5.561e-5
1.242,   5.569e-5
1.243,   5.574e-5
1.244,   5.584e-5
1.245,   5.596e-5
1.246,   5.599e-5
1.247,   5.613e-5
1.248,   5.620e-5
1.249,   5.624e-5
1.250,   5.641e-5
1.251,   5.642e-5
1.252,   5.655e-5
1.253,   5.665e-5
1.254,   5.669e-5
1.255,   5.682e-5
1.256,   5.686e-5
1.257,   5.697e-5
1.258,   5.716e-5
1.259,   5.718e-5
1.260,   5.731e-5
1.261,   5.744e-5
1.262,   5.743e-5
1.263,   5.760e-5
1.264,   5.766e-5
1.265,   5.774e-5
1.266,   5.788e-5
1.267,   5.794e-5
1.268,   5.805e-5
1.269,   5.816e-5
1.270,   5.823e-5
1.271,   5.840e-5
1.272,   5.850e-5
1.273,   5.864e-5
1.274,   5.875e-5
1.275,   5.883e-5
1.276,   5.893e-5
1.277,   5.908e-5
1.278,   5.910e-5
1.279,   5.927e-5
1.280,   5.939e-5
1.281,   5.951e-5
1.282,   5.965e-5
1.283,   5.972e-5
1.284,   5.985e-5
1.285,   6.002e-5
1.286,   6.014e-5
1.287,   6.027e-5
1.288,   6.033e-5
1.289,   6.046e-5
1.290,   6.063e-5
1.291,   6.071e-5
1.292,   6.089e-5
1.293,   6.102e-5
1.294,   6.113e-5
1.295,   6.130e-5
1.296,   6.144e-5
1.297,   6.158e-5
1.298,   6.173e-5
1.299,   6.186e-5
1.300,   6.200e-5
1.301,   6.215e-5
1.302,   6.226e-5
1.303,   6.248e-5
1.304,   6.259e-5
1.305,   6.280e-5
1.306,   6.298e-5
1.307,   6.305e-5
1.308,   6.328e-5
1.309,   6.348e-5
1.310,   6.357e-5
1.311,   6.383e-5
1.312,   6.404e-5
1.313,   6.418e-5
1.314,   6.439e-5
1.315,   6.457e-5
1.316,   6.481e-5
1.317,   6.504e-5
1.318,   6.525e-5
1.319,   6.544e-5
1.320,   6.563e-5
1.321,   6.586e-5
1.322,   6.604e-5
1.323,   6.619e-5
1.324,   6.653e-5
1.325,   6.679e-5
1.326,   6.690e-5
1.327,   6.725e-5
1.328,   6.747e-5
1.329,   6.768e-5
1.330,   6.797e-5
1.331,   6.819e-5
1.332,   6.848e-5
1.333,   6.874e-5
1.334,   6.898e-5
1.335,   6.925e-5
1.336,   6.948e-5
1.337,   6.986e-5
1.338,   7.015e-5
1.339,   7.035e-5
1.340,   7.068e-5
1.341,   7.098e-5
1.342,   7.125e-5
1.343,   7.163e-5
1.344,   7.197e-5
1.345,   7.229e-5
1.346,   7.265e-5
1.347,   7.302e-5
1.348,   7.334e-5
1.349,   7.373e-5
1.350,   7.410e-5
1.351,   7.455e-5
1.352,   7.490e-5
1.353,   7.538e-5
1.354,   7.589e-5
1.355,   7.624e-5
1.356,   7.677e-5
1.357,   7.727e-5
1.358,   7.765e-5
1.359,   7.820e-5
1.360,   7.871e-5
1.361,   7.923e-5
1.362,   7.981e-5
1.363,   8.042e-5
1.364,   8.102e-5
1.365,   8.161e-5
1.366,   8.220e-5
1.367,   8.294e-5
1.368,   8.362e-5
1.369,   8.440e-5
1.370,   8.525e-5
1.371,   8.593e-5
1.372,   8.688e-5
1.373,   8.774e-5
1.374,   8.871e-5
1.375,   8.982e-5
1.376,   9.087e-5
1.377,   9.191e-5
1.378,   9.316e-5
1.379,   9.426e-5
1.380,   9.563e-5
1.381,   9.705e-5
1.382,   9.850e-5
1.383,   1.001e-4
1.384,   1.017e-4
1.385,   1.035e-4
1.386,   1.055e-4
1.387,   1.074e-4
1.388,   1.097e-4
1.389,   1.121e-4
1.390,   1.144e-4
1.391,   1.170e-4
1.392,   1.197e-4
1.393,   1.226e-4
1.394,   1.257e-4
1.395,   1.290e-4
1.396,   1.324e-4
1.397,   1.361e-4
1.398,   1.400e-4
1.399,   1.443e-4
1.400,   1.486e-4
1.401,   1.533e-4
1.402,   1.584e-4
1.403,   1.635e-4
1.404,   1.690e-4
1.405,   1.749e-4
1.406,   1.810e-4
1.407,   1.875e-4
1.408,   1.943e-4
1.409,   2.015e-4
1.410,   2.092e-4
1.411,   2.172e-4
1.412,   2.257e-4
1.413,   2.347e-4
1.414,   2.442e-4
1.415,   2.542e-4
1.416,   2.646e-4
1.417,   2.757e-4
1.418,   2.873e-4
1.419,   2.993e-4
1.420,   3.120e-4
1.421,   3.255e-4
1.422,   3.394e-4
1.423,   3.540e-4
1.424,   3.693e-4
1.425,   3.854e-4
1.426,   4.024e-4
1.427,   4.201e-4
1.428,   4.386e-4
1.429,   4.576e-4
1.430,   4.777e-4
1.431,   4.987e-4
1.432,   5.202e-4
1.433,   5.430e-4
1.434,   5.666e-4
1.435,   5.911e-4
1.436,   6.166e-4
1.437,   6.429e-4
1.438,   6.703e-4
1.439,   6.989e-4
1.440,   7.284e-4
1.441,   7.587e-4
1.442,   7.903e-4
1.443,   8.231e-4
1.444,   8.567e-4
1.445,   8.914e-4
1.446,   9.270e-4
1.447,   9.639e-4
1.448,   1.001e-3
1.449,   1.041e-3
1.450,   1.081e-3
1.451,   1.122e-3
1.452,   1.164e-3
1.453,   1.210e-3
1.454,   1.255e-3
1.455,   1.300e-3
1.456,   1.347e-3
1.457,   1.395e-3
1.458,   1.443e-3
1.459,   1.494e-3
1.460,   1.545e-3
1.461,   1.597e-3
1.462,   1.649e-3
1.463,   1.703e-3
1.464,   1.757e-3
1.465,   1.814e-3
1.466,   1.872e-3
1.467,   1.929e-3
1.468,   1.989e-3
1.469,   2.048e-3
1.470,   2.110e-3
1.471,   2.174e-3
1.472,   2.233e-3
1.473,   2.297e-3
1.474,   2.364e-3
1.475,   2.426e-3
1.476,   2.493e-3
1.477,   2.559e-3
1.478,   2.626e-3
1.479,   2.695e-3
1.480,   2.761e-3
1.481,   2.832e-3
1.482,   2.902e-3
1.483,   2.971e-3
1.484,   3.040e-3
1.485,   3.110e-3
1.486,   3.179e-3
1.487,   3.252e-3
1.488,   3.323e-3
1.489,   3.395e-3
1.490,   3.467e-3
1.491,   3.540e-3
1.492,   3.612e-3
1.493,   3.683e-3
1.494,   3.756e-3
1.495,   3.829e-3
1.496,   3.903e-3
1.497,   3.976e-3
1.498,   4.050e-3
1.499,   4.119e-3
1.500,   4.191e-3
1.501,   4.260e-3
1.502,   4.330e-3
1.503,   4.403e-3
1.504,   4.476e-3
1.505,   4.549e-3
1.506,   4.619e-3
1.507,   4.693e-3
1.508,   4.763e-3
1.509,   4.831e-3
1.510,   4.898e-3
1.511,   4.968e-3
1.512,   5.039e-3
1.513,   5.105e-3