File: Experimental Records and Raw Data/batch3/final400/B3_VARIANCE_400_#2_Full(#10)-282mV.txt
Feb. 21, 2023   15:53:14
Linear Sweep Voltammetry
File: d:\current work\al_oer\electrochemical test data\batch 3\400\B3_VARIANCE_400_#2_Full(#10)-282mV.txt
Data Source:  Experiment
Instrument Model:  CHI660E
Header:
Note:

Init E (V) = 1.087

Final E (V) = 1.616

Scan Rate (V/s) = 0.010
Sample Interval (V) = 0.001
Quiet Time (sec) = 2
Sensitivity (A/V) = 0.001
Comp R (ohm) = 5.2

Results:

Channel 1:

Potential/V, Current/A
1.087,   2.372e-5
1.088,   2.286e-5
1.089,   2.165e-5
1.090,   2.050e-5
1.091,   1.947e-5
1.092,   1.857e-5
1.093,   1.778e-5
1.094,   1.707e-5
1.095,   1.643e-5
1.096,   1.584e-5
1.097,   1.530e-5
1.098,   1.481e-5
1.099,   1.435e-5
1.100,   1.391e-5
1.101,   1.354e-5
1.102,   1.318e-5
1.103,   1.283e-5
1.104,   1.252e-5
1.105,   1.223e-5
1.106,   1.195e-5
1.107,   1.171e-5
1.108,   1.146e-5
1.109,   1.122e-5
1.110,   1.101e-5
1.111,   1.080e-5
1.112,   1.064e-5
1.113,   1.043e-5
1.114,   1.026e-5
1.115,   1.010e-5
1.116,   9.943e-6
1.117,   9.793e-6
1.118,   9.637e-6
1.119,   9.490e-6
1.120,   9.378e-6
1.121,   9.266e-6
1.122,   9.160e-6
1.123,   9.024e-6
1.124,   8.931e-6
1.125,   8.809e-6
1.126,   8.717e-6
1.127,   8.613e-6
1.128,   8.528e-6
1.129,   8.454e-6
1.130,   8.379e-6
1.131,   8.292e-6
1.132,   8.241e-6
1.133,   8.165e-6
1.134,   8.103e-6
1.135,   8.011e-6
1.136,   7.969e-6
1.137,   7.911e-6
1.138,   7.849e-6
1.139,   7.807e-6
1.140,   7.731e-6
1.141,   7.716e-6
1.142,   7.673e-6
1.143,   7.604e-6
1.144,   7.536e-6
1.145,   7.522e-6
1.146,   7.488e-6
1.147,   7.435e-6
1.148,   7.384e-6
1.149,   7.360e-6
1.150,   7.315e-6
1.151,   7.267e-6
1.152,   7.241e-6
1.153,   7.202e-6
1.154,   7.170e-6
1.155,   7.146e-6
1.156,   7.116e-6
1.157,   7.095e-6
1.158,   7.041e-6
1.159,   7.050e-6
1.160,   6.997e-6
1.161,   6.988e-6
1.162,   6.932e-6
1.163,   6.919e-6
1.164,   6.921e-6
1.165,   6.895e-6
1.166,   6.865e-6
1.167,   6.844e-6
1.168,   6.822e-6
1.169,   6.823e-6
1.170,   6.792e-6
1.171,   6.767e-6
1.172,   6.756e-6
1.173,   6.738e-6
1.174,   6.700e-6
1.175,   6.711e-6
1.176,   6.697e-6
1.177,   6.682e-6
1.178,   6.666e-6
1.179,   6.662e-6
1.180,   6.654e-6
1.181,   6.642e-6
1.182,   6.630e-6
1.183,   6.615e-6
1.184,   6.612e-6
1.185,   6.607e-6
1.186,   6.589e-6
1.187,   6.585e-6
1.188,   6.563e-6
1.189,   6.532e-6
1.190,   6.513e-6
1.191,   6.511e-6
1.192,   6.534e-6
1.193,   6.521e-6
1.194,   6.540e-6
1.195,   6.505e-6
1.196,   6.496e-6
1.197,   6.496e-6
1.198,   6.498e-6
1.199,   6.478e-6
1.200,   6.491e-6
1.201,   6.494e-6
1.202,   6.474e-6
1.203,   6.492e-6
1.204,   6.486e-6
1.205,   6.448e-6
1.206,   6.428e-6
1.207,   6.426e-6
1.208,   6.451e-6
1.209,   6.434e-6
1.210,   6.472e-6
1.211,   6.436e-6
1.212,   6.448e-6
1.213,   6.424e-6
1.214,   6.448e-6
1.215,   6.418e-6
1.216,   6.446e-6
1.217,   6.454e-6
1.218,   6.443e-6
1.219,   6.417e-6
1.220,   6.417e-6
1.221,   6.436e-6
1.222,   6.445e-6
1.223,   6.428e-6
1.224,   6.448e-6
1.225,   6.432e-6
1.226,   6.443e-6
1.227,   6.449e-6
1.228,   6.441e-6
1.229,   6.457e-6
1.230,   6.459e-6
1.231,   6.442e-6
1.232,   6.468e-6
1.233,   6.481e-6
1.234,   6.454e-6
1.235,   6.475e-6
1.236,   6.482e-6
1.237,   6.460e-6
1.238,   6.483e-6
1.239,   6.486e-6
1.240,   6.483e-6
1.241,   6.479e-6
1.242,   6.454e-6
1.243,   6.494e-6
1.244,   6.493e-6
1.245,   6.480e-6
1.246,   6.480e-6
1.247,   6.507e-6
1.248,   6.508e-6
1.249,   6.514e-6
1.250,   6.506e-6
1.251,   6.531e-6
1.252,   6.548e-6
1.253,   6.543e-6
1.254,   6.524e-6
1.255,   6.552e-6
1.256,   6.566e-6
1.257,   6.557e-6
1.258,   6.550e-6
1.259,   6.546e-6
1.260,   6.557e-6
1.261,   6.568e-6
1.262,   6.576e-6
1.263,   6.552e-6
1.264,   6.585e-6
1.265,   6.583e-6
1.266,   6.561e-6
1.267,   6.586e-6
1.268,   6.622e-6
1.269,   6.611e-6
1.270,   6.620e-6
1.271,   6.595e-6
1.272,   6.623e-6
1.273,   6.666e-6
1.274,   6.650e-6
1.275,   6.664e-6
1.276,   6.658e-6
1.277,   6.679e-6
1.278,   6.707e-6
1.279,   6.703e-6
1.280,   6.707e-6
1.281,   6.724e-6
1.282,   6.700e-6
1.283,   6.735e-6
1.284,   6.734e-6
1.285,   6.767e-6
1.286,   6.784e-6
1.287,   6.770e-6
1.288,   6.776e-6
1.289,   6.759e-6
1.290,   6.766e-6
1.291,   6.795e-6
1.292,   6.829e-6
1.293,   6.844e-6
1.294,   6.831e-6
1.295,   6.840e-6
1.296,   6.866e-6
1.297,   6.897e-6
1.298,   6.886e-6
1.299,   6.908e-6
1.300,   6.908e-6
1.301,   6.932e-6
1.302,   6.944e-6
1.303,   6.969e-6
1.304,   6.954e-6
1.305,   6.949e-6
1.306,   6.960e-6
1.307,   6.995e-6
1.308,   6.999e-6
1.309,   6.996e-6
1.310,   7.033e-6
1.311,   7.024e-6
1.312,   7.076e-6
1.313,   7.119e-6
1.314,   7.113e-6
1.315,   7.078e-6
1.316,   7.120e-6
1.317,   7.146e-6
1.318,   7.160e-6
1.319,   7.183e-6
1.320,   7.213e-6
1.321,   7.230e-6
1.322,   7.219e-6
1.323,   7.264e-6
1.324,   7.267e-6
1.325,   7.314e-6
1.326,   7.336e-6
1.327,   7.337e-6
1.328,   7.358e-6
1.329,   7.375e-6
1.330,   7.403e-6
1.331,   7.436e-6
1.332,   7.454e-6
1.333,   7.493e-6
1.334,   7.521e-6
1.335,   7.526e-6
1.336,   7.568e-6
1.337,   7.568e-6
1.338,   7.581e-6
1.339,   7.617e-6
1.340,   7.647e-6
1.341,   7.685e-6
1.342,   7.705e-6
1.343,   7.742e-6
1.344,   7.793e-6
1.345,   7.808e-6
1.346,   7.837e-6
1.347,   7.893e-6
1.348,   7.914e-6
1.349,   7.952e-6
1.350,   7.985e-6
1.351,   8.051e-6
1.352,   8.082e-6
1.353,   8.147e-6
1.354,   8.180e-6
1.355,   8.242e-6
1.356,   8.279e-6
1.357,   8.351e-6
1.358,   8.434e-6
1.359,   8.491e-6
1.360,   8.552e-6
1.361,   8.622e-6
1.362,   8.697e-6
1.363,   8.763e-6
1.364,   8.880e-6
1.365,   8.981e-6
1.366,   9.073e-6
1.367,   9.183e-6
1.368,   9.299e-6
1.369,   9.403e-6
1.370,   9.549e-6
1.371,   9.677e-6
1.372,   9.823e-6
1.373,   9.981e-6
1.374,   1.016e-5
1.375,   1.034e-5
1.376,   1.053e-5
1.377,   1.074e-5
1.378,   1.092e-5
1.379,   1.120e-5
1.380,   1.142e-5
1.381,   1.169e-5
1.382,   1.200e-5
1.383,   1.227e-5
1.384,   1.257e-5
1.385,   1.295e-5
1.386,   1.333e-5
1.387,   1.370e-5
1.388,   1.413e-5
1.389,   1.457e-5
1.390,   1.505e-5
1.391,   1.554e-5
1.392,   1.607e-5
1.393,   1.668e-5
1.394,   1.725e-5
1.395,   1.788e-5
1.396,   1.852e-5
1.397,   1.926e-5
1.398,   2.007e-5
1.399,   2.085e-5
1.400,   2.170e-5
1.401,   2.262e-5
1.402,   2.357e-5
1.403,   2.461e-5
1.404,   2.571e-5
1.405,   2.685e-5
1.406,   2.802e-5
1.407,   2.922e-5
1.408,   3.057e-5
1.409,   3.199e-5
1.410,   3.343e-5
1.411,   3.502e-5
1.412,   3.661e-5
1.413,   3.820e-5
1.414,   3.999e-5
1.415,   4.189e-5
1.416,   4.385e-5
1.417,   4.592e-5
1.418,   4.806e-5
1.419,   5.035e-5
1.420,   5.273e-5
1.421,   5.523e-5
1.422,   5.781e-5
1.423,   6.056e-5
1.424,   6.341e-5
1.425,   6.638e-5
1.426,   6.948e-5
1.427,   7.275e-5
1.428,   7.623e-5
1.429,   7.982e-5
1.430,   8.353e-5
1.431,   8.741e-5
1.432,   9.151e-5
1.433,   9.573e-5
1.434,   1.001e-4
1.435,   1.048e-4
1.436,   1.096e-4
1.437,   1.147e-4
1.438,   1.200e-4
1.439,   1.255e-4
1.440,   1.312e-4
1.441,   1.372e-4
1.442,   1.434e-4
1.443,   1.499e-4
1.444,   1.568e-4
1.445,   1.639e-4
1.446,   1.712e-4
1.447,   1.788e-4
1.448,   1.868e-4
1.449,   1.951e-4
1.450,   2.036e-4
1.451,   2.126e-4
1.452,   2.219e-4
1.453,   2.318e-4
1.454,   2.421e-4
1.455,   2.525e-4
1.456,   2.635e-4
1.457,   2.749e-4
1.458,   2.867e-4
1.459,   2.990e-4
1.460,   3.118e-4
1.461,   3.252e-4
1.462,   3.388e-4
1.463,   3.531e-4
1.464,   3.678e-4
1.465,   3.831e-4
1.466,   3.992e-4
1.467,   4.157e-4
1.468,   4.327e-4
1.469,   4.504e-4
1.470,   4.688e-4
1.471,   4.877e-4
1.472,   5.075e-4
1.473,   5.277e-4
1.474,   5.486e-4
1.475,   5.702e-4
1.476,   5.925e-4
1.477,   6.155e-4
1.478,   6.394e-4
1.479,   6.640e-4
1.480,   6.892e-4
1.481,   7.150e-4
1.482,   7.415e-4
1.483,   7.687e-4
1.484,   7.969e-4
1.485,   8.258e-4
1.486,   8.556e-4
1.487,   8.864e-4
1.488,   9.180e-4
1.489,   9.502e-4
1.490,   9.832e-4
1.491,   1.017e-3
1.492,   1.052e-3
1.493,   1.087e-3
1.494,   1.124e-3
1.495,   1.160e-3
1.496,   1.198e-3
1.497,   1.237e-3
1.498,   1.276e-3
1.499,   1.317e-3
1.500,   1.357e-3
1.501,   1.399e-3
1.502,   1.441e-3
1.503,   1.484e-3
1.504,   1.528e-3
1.505,   1.572e-3
1.506,   1.617e-3
1.507,   1.663e-3
1.508,   1.708e-3
1.509,   1.753e-3
1.510,   1.800e-3
1.511,   1.847e-3
1.512,   1.896e-3
1.513,   1.945e-3
1.514,   1.995e-3
1.515,   2.046e-3
1.516,   2.096e-3
1.517,   2.148e-3
1.518,   2.201e-3
1.519,   2.254e-3
1.520,   2.307e-3
1.521,   2.361e-3
1.522,   2.415e-3
1.523,   2.470e-3
1.524,   2.527e-3
1.525,   2.585e-3
1.526,   2.641e-3
1.527,   2.697e-3
1.528,   2.753e-3
1.529,   2.810e-3
1.530,   2.868e-3
1.531,   2.926e-3
1.532,   2.987e-3
1.533,   3.046e-3
1.534,   3.105e-3
1.535,   3.160e-3
1.536,   3.216e-3
1.537,   3.272e-3
1.538,   3.327e-3
1.539,   3.384e-3
1.540,   3.441e-3
1.541,   3.497e-3
1.542,   3.550e-3
1.543,   3.603e-3
1.544,   3.659e-3
1.545,   3.714e-3
1.546,   3.768e-3
1.547,   3.823e-3
1.548,   3.877e-3
1.549,   3.929e-3
1.550,   3.980e-3
1.551,   4.035e-3
1.552,   4.088e-3
1.553,   4.146e-3
1.554,   4.201e-3
1.555,   4.252e-3
1.556,   4.310e-3
1.557,   4.366e-3
1.558,   4.419e-3
1.559,   4.471e-3
1.560,   4.521e-3
1.561,   4.568e-3
1.562,   4.630e-3
1.563,   4.688e-3
1.564,   4.742e-3
1.565,   4.788e-3
1.566,   4.838e-3
1.567,   4.886e-3
1.568,   4.932e-3
1.569,   4.982e-3
1.570,   5.034e-3
1.571,   5.087e-3
1.572,   5.140e-3
1.573,   5.191e-3
1.574,   5.240e-3
1.575,   5.273e-3
1.576,   5.318e-3
1.577,   5.360e-3
1.578,   5.412e-3
1.579,   5.456e-3
1.580,   5.493e-3
1.581,   5.541e-3
1.582,   5.582e-3
1.583,   5.621e-3
1.584,   5.655e-3
1.585,   5.679e-3
1.586,   5.708e-3
1.587,   5.754e-3
1.588,   5.788e-3
1.589,   5.822e-3
1.590,   5.842e-3
1.591,   5.876e-3
1.592,   5.926e-3
1.593,   5.989e-3
1.594,   6.031e-3
1.595,   6.059e-3
1.596,   6.080e-3
1.597,   6.094e-3
1.598,   6.094e-3
1.599,   6.105e-3
1.600,   6.121e-3
1.601,   6.145e-3
1.602,   6.160e-3
1.603,   6.168e-3
1.604,   6.171e-3
1.605,   6.175e-3
1.606,   6.188e-3
1.607,   6.191e-3
1.608,   6.187e-3
1.609,   6.182e-3
1.610,   6.187e-3
1.611,   6.181e-3
1.612,   6.188e-3
1.613,   6.201e-3
1.614,   6.206e-3
1.615,   6.214e-3
1.616,   6.192e-3