File: Experimental Records and Raw Data/batch5/final500/B5_BEST_500_#1_Full(#8)-215mV.txt
June 9, 2023   15:13:53
Linear Sweep Voltammetry
File: d:\current work\al_oer\electrochemical test data\batch 5\500\B5_BEST_500_#1_Full(#8)-215mV.txt
Data Source:  Experiment
Instrument Model:  CHI660E
Header:
Note:

Init E (V) = 0.897

Final E (V) = 1.509

Scan Rate (V/s) = 0.010
Sample Interval (V) = 0.001
Quiet Time (sec) = 2
Sensitivity (A/V) = 0.001
Comp R (ohm) = 4.7

Results:

Channel 1:

Potential/V, Current/A
0.897,   2.700e-4
0.898,   2.891e-4
0.899,   2.922e-4
0.900,   2.881e-4
0.901,   2.979e-4
0.902,   2.913e-4
0.903,   2.859e-4
0.904,   2.867e-4
0.905,   2.903e-4
0.906,   2.858e-4
0.907,   2.773e-4
0.908,   2.848e-4
0.909,   2.798e-4
0.910,   2.802e-4
0.911,   2.693e-4
0.912,   2.816e-4
0.913,   2.713e-4
0.914,   2.744e-4
0.915,   2.600e-4
0.916,   2.782e-4
0.917,   2.648e-4
0.918,   2.647e-4
0.919,   2.592e-4
0.920,   2.708e-4
0.921,   2.610e-4
0.922,   2.571e-4
0.923,   2.575e-4
0.924,   2.619e-4
0.925,   2.561e-4
0.926,   2.501e-4
0.927,   2.566e-4
0.928,   2.542e-4
0.929,   2.527e-4
0.930,   2.447e-4
0.931,   2.552e-4
0.932,   2.481e-4
0.933,   2.485e-4
0.934,   2.396e-4
0.935,   2.515e-4
0.936,   2.429e-4
0.937,   2.431e-4
0.938,   2.363e-4
0.939,   2.479e-4
0.940,   2.399e-4
0.941,   2.378e-4
0.942,   2.351e-4
0.943,   2.436e-4
0.944,   2.362e-4
0.945,   2.336e-4
0.946,   2.355e-4
0.947,   2.347e-4
0.948,   2.349e-4
0.949,   2.266e-4
0.950,   2.366e-4
0.951,   2.301e-4
0.952,   2.316e-4
0.953,   2.238e-4
0.954,   2.355e-4
0.955,   2.259e-4
0.956,   2.296e-4
0.957,   2.212e-4
0.958,   2.332e-4
0.959,   2.234e-4
0.960,   2.253e-4
0.961,   2.210e-4
0.962,   2.290e-4
0.963,   2.225e-4
0.964,   2.215e-4
0.965,   2.220e-4
0.966,   2.244e-4
0.967,   2.198e-4
0.968,   2.172e-4
0.969,   2.227e-4
0.970,   2.190e-4
0.971,   2.197e-4
0.972,   2.147e-4
0.973,   2.242e-4
0.974,   2.155e-4
0.975,   2.187e-4
0.976,   2.104e-4
0.977,   2.228e-4
0.978,   2.139e-4
0.979,   2.154e-4
0.980,   2.099e-4
0.981,   2.200e-4
0.982,   2.130e-4
0.983,   2.120e-4
0.984,   2.108e-4
0.985,   2.164e-4
0.986,   2.127e-4
0.987,   2.080e-4
0.988,   2.125e-4
0.989,   2.125e-4
0.990,   2.120e-4
0.991,   2.044e-4
0.992,   2.155e-4
0.993,   2.085e-4
0.994,   2.106e-4
0.995,   2.023e-4
0.996,   2.162e-4
0.997,   2.067e-4
0.998,   2.097e-4
0.999,   2.022e-4
1.000,   2.136e-4
1.001,   2.057e-4
1.002,   2.058e-4
1.003,   2.040e-4
1.004,   2.113e-4
1.005,   2.064e-4
1.006,   2.031e-4
1.007,   2.064e-4
1.008,   2.072e-4
1.009,   2.067e-4
1.010,   1.998e-4
1.011,   2.084e-4
1.012,   2.040e-4
1.013,   2.063e-4
1.014,   1.978e-4
1.015,   2.103e-4
1.016,   2.019e-4
1.017,   2.048e-4
1.018,   1.976e-4
1.019,   2.091e-4
1.020,   2.015e-4
1.021,   2.028e-4
1.022,   1.982e-4
1.023,   2.080e-4
1.024,   2.019e-4
1.025,   1.996e-4
1.026,   2.005e-4
1.027,   2.047e-4
1.028,   2.027e-4
1.029,   1.971e-4
1.030,   2.044e-4
1.031,   2.011e-4
1.032,   2.033e-4
1.033,   1.949e-4
1.034,   2.069e-4
1.035,   1.991e-4
1.036,   2.033e-4
1.037,   1.944e-4
1.038,   2.081e-4
1.039,   1.981e-4
1.040,   2.004e-4
1.041,   1.961e-4
1.042,   2.066e-4
1.043,   1.986e-4
1.044,   2.002e-4
1.045,   1.984e-4
1.046,   2.049e-4
1.047,   2.005e-4
1.048,   1.962e-4
1.049,   2.018e-4
1.050,   2.010e-4
1.051,   1.999e-4
1.052,   1.978e-4
1.053,   2.057e-4
1.054,   1.984e-4
1.055,   2.004e-4
1.056,   1.947e-4
1.057,   2.071e-4
1.058,   1.991e-4
1.059,   2.005e-4
1.060,   1.963e-4
1.061,   2.067e-4
1.062,   1.986e-4
1.063,   1.991e-4
1.064,   1.973e-4
1.065,   2.053e-4
1.066,   2.004e-4
1.067,   1.970e-4
1.068,   2.006e-4
1.069,   2.036e-4
1.070,   2.010e-4
1.071,   1.973e-4
1.072,   2.049e-4
1.073,   2.008e-4
1.074,   2.021e-4
1.075,   1.958e-4
1.076,   2.084e-4
1.077,   1.993e-4
1.078,   2.044e-4
1.079,   1.956e-4
1.080,   2.089e-4
1.081,   1.996e-4
1.082,   2.046e-4
1.083,   1.980e-4
1.084,   2.100e-4
1.085,   2.009e-4
1.086,   2.014e-4
1.087,   2.028e-4
1.088,   2.075e-4
1.089,   2.034e-4
1.090,   2.000e-4
1.091,   2.066e-4
1.092,   2.056e-4
1.093,   2.043e-4
1.094,   2.000e-4
1.095,   2.108e-4
1.096,   2.035e-4
1.097,   2.062e-4
1.098,   1.972e-4
1.099,   2.150e-4
1.100,   2.035e-4
1.101,   2.058e-4
1.102,   2.000e-4
1.103,   2.164e-4
1.104,   2.052e-4
1.105,   2.056e-4
1.106,   2.046e-4
1.107,   2.149e-4
1.108,   2.091e-4
1.109,   2.052e-4
1.110,   2.107e-4
1.111,   2.121e-4
1.112,   2.105e-4
1.113,   2.042e-4
1.114,   2.152e-4
1.115,   2.082e-4
1.116,   2.119e-4
1.117,   2.047e-4
1.118,   2.210e-4
1.119,   2.091e-4
1.120,   2.129e-4
1.121,   2.064e-4
1.122,   2.238e-4
1.123,   2.103e-4
1.124,   2.128e-4
1.125,   2.102e-4
1.126,   2.233e-4
1.127,   2.146e-4
1.128,   2.130e-4
1.129,   2.155e-4
1.130,   2.220e-4
1.131,   2.142e-4
1.132,   2.116e-4
1.133,   2.213e-4
1.134,   2.185e-4
1.135,   2.192e-4
1.136,   2.114e-4
1.137,   2.270e-4
1.138,   2.196e-4
1.139,   2.193e-4
1.140,   2.113e-4
1.141,   2.340e-4
1.142,   2.185e-4
1.143,   2.215e-4
1.144,   2.141e-4
1.145,   2.335e-4
1.146,   2.200e-4
1.147,   2.198e-4
1.148,   2.214e-4
1.149,   2.306e-4
1.150,   2.232e-4
1.151,   2.197e-4
1.152,   2.265e-4
1.153,   2.283e-4
1.154,   2.258e-4
1.155,   2.191e-4
1.156,   2.348e-4
1.157,   2.251e-4
1.158,   2.282e-4
1.159,   2.198e-4
1.160,   2.397e-4
1.161,   2.230e-4
1.162,   2.308e-4
1.163,   2.207e-4
1.164,   2.436e-4
1.165,   2.252e-4
1.166,   2.298e-4
1.167,   2.270e-4
1.168,   2.429e-4
1.169,   2.293e-4
1.170,   2.295e-4
1.171,   2.342e-4
1.172,   2.405e-4
1.173,   2.359e-4
1.174,   2.269e-4
1.175,   2.433e-4
1.176,   2.368e-4
1.177,   2.385e-4
1.178,   2.265e-4
1.179,   2.506e-4
1.180,   2.354e-4
1.181,   2.410e-4
1.182,   2.303e-4
1.183,   2.558e-4
1.184,   2.349e-4
1.185,   2.438e-4
1.186,   2.333e-4
1.187,   2.579e-4
1.188,   2.387e-4
1.189,   2.440e-4
1.190,   2.398e-4
1.191,   2.555e-4
1.192,   2.451e-4
1.193,   2.423e-4
1.194,   2.500e-4
1.195,   2.506e-4
1.196,   2.524e-4
1.197,   2.395e-4
1.198,   2.597e-4
1.199,   2.480e-4
1.200,   2.555e-4
1.201,   2.403e-4
1.202,   2.680e-4
1.203,   2.474e-4
1.204,   2.583e-4
1.205,   2.449e-4
1.206,   2.713e-4
1.207,   2.518e-4
1.208,   2.590e-4
1.209,   2.495e-4
1.210,   2.710e-4
1.211,   2.550e-4
1.212,   2.596e-4
1.213,   2.588e-4
1.214,   2.680e-4
1.215,   2.662e-4
1.216,   2.557e-4
1.217,   2.714e-4
1.218,   2.626e-4
1.219,   2.733e-4
1.220,   2.522e-4
1.221,   2.811e-4
1.222,   2.621e-4
1.223,   2.760e-4
1.224,   2.561e-4
1.225,   2.910e-4
1.226,   2.636e-4
1.227,   2.773e-4
1.228,   2.618e-4
1.229,   2.911e-4
1.230,   2.675e-4
1.231,   2.790e-4
1.232,   2.702e-4
1.233,   2.898e-4
1.234,   2.761e-4
1.235,   2.756e-4
1.236,   2.829e-4
1.237,   2.822e-4
1.238,   2.876e-4
1.239,   2.744e-4
1.240,   2.936e-4
1.241,   2.796e-4
1.242,   2.961e-4
1.243,   2.718e-4
1.244,   3.053e-4
1.245,   2.769e-4
1.246,   3.013e-4
1.247,   2.749e-4
1.248,   3.118e-4
1.249,   2.845e-4
1.250,   3.017e-4
1.251,   2.831e-4
1.252,   3.104e-4
1.253,   2.893e-4
1.254,   2.990e-4
1.255,   2.957e-4
1.256,   3.056e-4
1.257,   3.033e-4
1.258,   2.949e-4
1.259,   3.089e-4
1.260,   3.006e-4
1.261,   3.139e-4
1.262,   2.916e-4
1.263,   3.202e-4
1.264,   2.969e-4
1.265,   3.190e-4
1.266,   2.926e-4
1.267,   3.314e-4
1.268,   2.975e-4
1.269,   3.236e-4
1.270,   3.004e-4
1.271,   3.309e-4
1.272,   3.060e-4
1.273,   3.210e-4
1.274,   3.099e-4
1.275,   3.282e-4
1.276,   3.170e-4
1.277,   3.195e-4
1.278,   3.236e-4
1.279,   3.231e-4
1.280,   3.293e-4
1.281,   3.168e-4
1.282,   3.370e-4
1.283,   3.168e-4
1.284,   3.397e-4
1.285,   3.155e-4
1.286,   3.466e-4
1.287,   3.166e-4
1.288,   3.451e-4
1.289,   3.164e-4
1.290,   3.553e-4
1.291,   3.244e-4
1.292,   3.461e-4
1.293,   3.272e-4
1.294,   3.515e-4
1.295,   3.311e-4
1.296,   3.416e-4
1.297,   3.397e-4
1.298,   3.463e-4
1.299,   3.474e-4
1.300,   3.369e-4
1.301,   3.569e-4
1.302,   3.394e-4
1.303,   3.596e-4
1.304,   3.346e-4
1.305,   3.692e-4
1.306,   3.369e-4
1.307,   3.665e-4
1.308,   3.369e-4
1.309,   3.775e-4
1.310,   3.412e-4
1.311,   3.671e-4
1.312,   3.448e-4
1.313,   3.779e-4
1.314,   3.509e-4
1.315,   3.660e-4
1.316,   3.563e-4
1.317,   3.739e-4
1.318,   3.617e-4
1.319,   3.638e-4
1.320,   3.734e-4
1.321,   3.638e-4
1.322,   3.793e-4
1.323,   3.605e-4
1.324,   3.878e-4
1.325,   3.598e-4
1.326,   3.910e-4
1.327,   3.592e-4
1.328,   3.994e-4
1.329,   3.627e-4
1.330,   3.962e-4
1.331,   3.641e-4
1.332,   4.084e-4
1.333,   3.700e-4
1.334,   4.013e-4
1.335,   3.747e-4
1.336,   4.027e-4
1.337,   3.828e-4
1.338,   3.966e-4
1.339,   3.927e-4
1.340,   3.968e-4
1.341,   4.029e-4
1.342,   3.919e-4
1.343,   4.141e-4
1.344,   3.875e-4
1.345,   4.226e-4
1.346,   3.891e-4
1.347,   4.248e-4
1.348,   3.888e-4
1.349,   4.306e-4
1.350,   3.924e-4
1.351,   4.385e-4
1.352,   3.948e-4
1.353,   4.378e-4
1.354,   4.049e-4
1.355,   4.389e-4
1.356,   4.109e-4
1.357,   4.409e-4
1.358,   4.153e-4
1.359,   4.377e-4
1.360,   4.334e-4
1.361,   4.361e-4
1.362,   4.394e-4
1.363,   4.327e-4
1.364,   4.539e-4
1.365,   4.316e-4
1.366,   4.645e-4
1.367,   4.296e-4
1.368,   4.736e-4
1.369,   4.344e-4
1.370,   4.810e-4
1.371,   4.356e-4
1.372,   4.861e-4
1.373,   4.462e-4
1.374,   4.918e-4
1.375,   4.525e-4
1.376,   4.984e-4
1.377,   4.618e-4
1.378,   4.945e-4
1.379,   4.783e-4
1.380,   4.973e-4
1.381,   4.892e-4
1.382,   4.948e-4
1.383,   5.083e-4
1.384,   4.988e-4
1.385,   5.223e-4
1.386,   4.967e-4
1.387,   5.400e-4
1.388,   5.052e-4
1.389,   5.469e-4
1.390,   5.050e-4
1.391,   5.677e-4
1.392,   5.186e-4
1.393,   5.744e-4
1.394,   5.250e-4
1.395,   5.876e-4
1.396,   5.424e-4
1.397,   5.930e-4
1.398,   5.588e-4
1.399,   6.076e-4
1.400,   5.771e-4
1.401,   6.081e-4
1.402,   6.040e-4
1.403,   6.225e-4
1.404,   6.304e-4
1.405,   6.224e-4
1.406,   6.524e-4
1.407,   6.387e-4
1.408,   6.823e-4
1.409,   6.433e-4
1.410,   7.162e-4
1.411,   6.715e-4
1.412,   7.354e-4
1.413,   6.821e-4
1.414,   7.707e-4
1.415,   7.195e-4
1.416,   7.971e-4
1.417,   7.427e-4
1.418,   8.389e-4
1.419,   7.808e-4
1.420,   8.547e-4
1.421,   8.296e-4
1.422,   8.974e-4
1.423,   8.782e-4
1.424,   9.170e-4
1.425,   9.467e-4
1.426,   9.686e-4
1.427,   1.009e-3
1.428,   9.908e-4
1.429,   1.091e-3
1.430,   1.058e-3
1.431,   1.153e-3
1.432,   1.105e-3
1.433,   1.253e-3
1.434,   1.190e-3
1.435,   1.327e-3
1.436,   1.263e-3
1.437,   1.436e-3
1.438,   1.373e-3
1.439,   1.523e-3
1.440,   1.490e-3
1.441,   1.659e-3
1.442,   1.615e-3
1.443,   1.751e-3
1.444,   1.792e-3
1.445,   1.903e-3
1.446,   1.955e-3
1.447,   2.038e-3
1.448,   2.161e-3
1.449,   2.225e-3
1.450,   2.376e-3
1.451,   2.395e-3
1.452,   2.630e-3
1.453,   2.621e-3
1.454,   2.891e-3
1.455,   2.858e-3
1.456,   3.179e-3
1.457,   3.140e-3
1.458,   3.531e-3
1.459,   3.478e-3
1.460,   3.879e-3
1.461,   3.850e-3
1.462,   4.264e-3
1.463,   4.290e-3
1.464,   4.644e-3
1.465,   4.726e-3
1.466,   5.043e-3
1.467,   5.335e-3
1.468,   5.498e-3
1.469,   5.778e-3
1.470,   5.972e-3
1.471,   6.493e-3
1.472,   6.410e-3
1.473,   6.782e-3
1.474,   7.020e-3
1.475,   7.548e-3
1.476,   7.353e-3
1.477,   7.877e-3
1.478,   8.156e-3
1.479,   8.482e-3
1.480,   8.354e-3
1.481,   8.870e-3
1.482,   9.250e-3
1.483,   9.255e-3
1.484,   9.254e-3
1.485,   9.651e-3
1.486,   9.661e-3
1.487,   9.539e-3
1.488,   9.665e-3
1.489,   9.842e-3
1.490,   9.891e-3
1.491,   9.874e-3
1.492,   1.001e-2
1.493,   1.007e-2
1.494,   1.007e-2
1.495,   1.007e-2
1.496,   1.007e-2
1.497,   1.007e-2
1.498,   1.007e-2
1.499,   1.007e-2
1.500,   1.007e-2
1.501,   1.007e-2
1.502,   1.007e-2
1.503,   1.007e-2
1.504,   1.007e-2
1.505,   1.007e-2
1.506,   1.007e-2
1.507,   1.007e-2
1.508,   1.007e-2
1.509,   1.007e-2