File: Experimental Records and Raw Data/batch5/final500/B5_BEST_500_#1_High_Quality(#24)-195mV.txt
June 9, 2023   14:49:33
Linear Sweep Voltammetry
File: d:\current work\al_oer\electrochemical test data\batch 5\500\B5_BEST_500_#1_High_Quality(#24)-195mV.txt
Data Source:  Experiment
Instrument Model:  CHI660E
Header:
Note:

Init E (V) = 0.893

Final E (V) = 1.493

Scan Rate (V/s) = 0.010
Sample Interval (V) = 0.001
Quiet Time (sec) = 2
Sensitivity (A/V) = 0.001
Comp R (ohm) = 4.0

Results:

Channel 1:

Potential/V, Current/A
0.893,   1.457e-4
0.894,   3.025e-4
0.895,   3.399e-4
0.896,   3.501e-4
0.897,   3.431e-4
0.898,   3.373e-4
0.899,   3.426e-4
0.900,   3.351e-4
0.901,   3.350e-4
0.902,   3.306e-4
0.903,   3.400e-4
0.904,   3.479e-4
0.905,   3.618e-4
0.906,   3.630e-4
0.907,   3.530e-4
0.908,   3.434e-4
0.909,   3.460e-4
0.910,   3.493e-4
0.911,   3.376e-4
0.912,   3.336e-4
0.913,   3.410e-4
0.914,   3.537e-4
0.915,   3.677e-4
0.916,   3.658e-4
0.917,   3.566e-4
0.918,   3.505e-4
0.919,   3.434e-4
0.920,   3.479e-4
0.921,   3.427e-4
0.922,   3.382e-4
0.923,   3.446e-4
0.924,   3.570e-4
0.925,   3.709e-4
0.926,   3.687e-4
0.927,   3.584e-4
0.928,   3.520e-4
0.929,   3.491e-4
0.930,   3.528e-4
0.931,   3.465e-4
0.932,   3.439e-4
0.933,   3.478e-4
0.934,   3.552e-4
0.935,   3.766e-4
0.936,   3.724e-4
0.937,   3.643e-4
0.938,   3.551e-4
0.939,   3.514e-4
0.940,   3.526e-4
0.941,   3.504e-4
0.942,   3.479e-4
0.943,   3.481e-4
0.944,   3.594e-4
0.945,   3.719e-4
0.946,   3.783e-4
0.947,   3.653e-4
0.948,   3.535e-4
0.949,   3.522e-4
0.950,   3.569e-4
0.951,   3.558e-4
0.952,   3.535e-4
0.953,   3.582e-4
0.954,   3.606e-4
0.955,   3.757e-4
0.956,   3.760e-4
0.957,   3.698e-4
0.958,   3.597e-4
0.959,   3.613e-4
0.960,   3.644e-4
0.961,   3.511e-4
0.962,   3.529e-4
0.963,   3.578e-4
0.964,   3.681e-4
0.965,   3.832e-4
0.966,   3.879e-4
0.967,   3.769e-4
0.968,   3.672e-4
0.969,   3.627e-4
0.970,   3.612e-4
0.971,   3.593e-4
0.972,   3.670e-4
0.973,   3.617e-4
0.974,   3.698e-4
0.975,   3.870e-4
0.976,   3.946e-4
0.977,   3.820e-4
0.978,   3.651e-4
0.979,   3.688e-4
0.980,   3.652e-4
0.981,   3.692e-4
0.982,   3.670e-4
0.983,   3.669e-4
0.984,   3.720e-4
0.985,   3.920e-4
0.986,   3.939e-4
0.987,   3.862e-4
0.988,   3.719e-4
0.989,   3.752e-4
0.990,   3.760e-4
0.991,   3.749e-4
0.992,   3.707e-4
0.993,   3.733e-4
0.994,   3.791e-4
0.995,   3.919e-4
0.996,   3.941e-4
0.997,   4.005e-4
0.998,   3.788e-4
0.999,   3.832e-4
1.000,   3.826e-4
1.001,   3.759e-4
1.002,   3.688e-4
1.003,   3.756e-4
1.004,   3.848e-4
1.005,   4.006e-4
1.006,   4.050e-4
1.007,   4.036e-4
1.008,   3.932e-4
1.009,   3.849e-4
1.010,   3.842e-4
1.011,   3.817e-4
1.012,   3.770e-4
1.013,   3.829e-4
1.014,   3.898e-4
1.015,   3.992e-4
1.016,   4.115e-4
1.017,   4.093e-4
1.018,   3.951e-4
1.019,   3.907e-4
1.020,   3.948e-4
1.021,   3.924e-4
1.022,   3.851e-4
1.023,   3.849e-4
1.024,   3.942e-4
1.025,   4.044e-4
1.026,   4.185e-4
1.027,   4.178e-4
1.028,   3.948e-4
1.029,   3.972e-4
1.030,   4.037e-4
1.031,   3.967e-4
1.032,   3.945e-4
1.033,   3.904e-4
1.034,   3.953e-4
1.035,   4.076e-4
1.036,   4.230e-4
1.037,   4.139e-4
1.038,   4.040e-4
1.039,   4.013e-4
1.040,   4.096e-4
1.041,   4.109e-4
1.042,   4.021e-4
1.043,   3.959e-4
1.044,   3.967e-4
1.045,   4.148e-4
1.046,   4.252e-4
1.047,   4.230e-4
1.048,   4.095e-4
1.049,   4.109e-4
1.050,   4.133e-4
1.051,   4.194e-4
1.052,   4.098e-4
1.053,   4.023e-4
1.054,   4.111e-4
1.055,   4.193e-4
1.056,   4.319e-4
1.057,   4.265e-4
1.058,   4.210e-4
1.059,   4.103e-4
1.060,   4.224e-4
1.061,   4.114e-4
1.062,   4.180e-4
1.063,   4.107e-4
1.064,   4.086e-4
1.065,   4.228e-4
1.066,   4.370e-4
1.067,   4.407e-4
1.068,   4.287e-4
1.069,   4.189e-4
1.070,   4.229e-4
1.071,   4.200e-4
1.072,   4.230e-4
1.073,   4.122e-4
1.074,   4.196e-4
1.075,   4.372e-4
1.076,   4.429e-4
1.077,   4.426e-4
1.078,   4.307e-4
1.079,   4.272e-4
1.080,   4.308e-4
1.081,   4.335e-4
1.082,   4.269e-4
1.083,   4.234e-4
1.084,   4.324e-4
1.085,   4.381e-4
1.086,   4.502e-4
1.087,   4.531e-4
1.088,   4.415e-4
1.089,   4.323e-4
1.090,   4.352e-4
1.091,   4.448e-4
1.092,   4.287e-4
1.093,   4.313e-4
1.094,   4.380e-4
1.095,   4.481e-4
1.096,   4.544e-4
1.097,   4.606e-4
1.098,   4.521e-4
1.099,   4.478e-4
1.100,   4.410e-4
1.101,   4.481e-4
1.102,   4.389e-4
1.103,   4.359e-4
1.104,   4.453e-4
1.105,   4.564e-4
1.106,   4.653e-4
1.107,   4.728e-4
1.108,   4.610e-4
1.109,   4.525e-4
1.110,   4.533e-4
1.111,   4.569e-4
1.112,   4.489e-4
1.113,   4.468e-4
1.114,   4.506e-4
1.115,   4.618e-4
1.116,   4.754e-4
1.117,   4.849e-4
1.118,   4.720e-4
1.119,   4.608e-4
1.120,   4.653e-4
1.121,   4.654e-4
1.122,   4.651e-4
1.123,   4.532e-4
1.124,   4.552e-4
1.125,   4.713e-4
1.126,   4.893e-4
1.127,   4.898e-4
1.128,   4.856e-4
1.129,   4.664e-4
1.130,   4.797e-4
1.131,   4.742e-4
1.132,   4.741e-4
1.133,   4.650e-4
1.134,   4.642e-4
1.135,   4.753e-4
1.136,   4.938e-4
1.137,   5.020e-4
1.138,   5.002e-4
1.139,   4.876e-4
1.140,   4.804e-4
1.141,   4.820e-4
1.142,   4.831e-4
1.143,   4.723e-4
1.144,   4.783e-4
1.145,   4.920e-4
1.146,   5.098e-4
1.147,   5.141e-4
1.148,   5.058e-4
1.149,   4.967e-4
1.150,   4.822e-4
1.151,   5.008e-4
1.152,   4.996e-4
1.153,   4.885e-4
1.154,   4.901e-4
1.155,   4.943e-4
1.156,   5.027e-4
1.157,   5.186e-4
1.158,   5.216e-4
1.159,   5.075e-4
1.160,   5.091e-4
1.161,   5.004e-4
1.162,   5.039e-4
1.163,   5.004e-4
1.164,   5.001e-4
1.165,   5.061e-4
1.166,   5.323e-4
1.167,   5.344e-4
1.168,   5.242e-4
1.169,   5.168e-4
1.170,   5.180e-4
1.171,   5.200e-4
1.172,   5.154e-4
1.173,   5.095e-4
1.174,   5.106e-4
1.175,   5.162e-4
1.176,   5.368e-4
1.177,   5.543e-4
1.178,   5.401e-4
1.179,   5.334e-4
1.180,   5.205e-4
1.181,   5.352e-4
1.182,   5.267e-4
1.183,   5.271e-4
1.184,   5.213e-4
1.185,   5.282e-4
1.186,   5.511e-4
1.187,   5.604e-4
1.188,   5.561e-4
1.189,   5.452e-4
1.190,   5.429e-4
1.191,   5.429e-4
1.192,   5.418e-4
1.193,   5.330e-4
1.194,   5.351e-4
1.195,   5.446e-4
1.196,   5.671e-4
1.197,   5.826e-4
1.198,   5.786e-4
1.199,   5.562e-4
1.200,   5.515e-4
1.201,   5.504e-4
1.202,   5.463e-4
1.203,   5.502e-4
1.204,   5.514e-4
1.205,   5.610e-4
1.206,   5.708e-4
1.207,   5.950e-4
1.208,   5.926e-4
1.209,   5.733e-4
1.210,   5.615e-4
1.211,   5.711e-4
1.212,   5.656e-4
1.213,   5.715e-4
1.214,   5.620e-4
1.215,   5.662e-4
1.216,   5.864e-4
1.217,   6.151e-4
1.218,   6.110e-4
1.219,   5.927e-4
1.220,   5.784e-4
1.221,   5.912e-4
1.222,   5.804e-4
1.223,   5.634e-4
1.224,   5.667e-4
1.225,   5.797e-4
1.226,   6.002e-4
1.227,   6.267e-4
1.228,   6.314e-4
1.229,   6.115e-4
1.230,   5.968e-4
1.231,   5.961e-4
1.232,   5.953e-4
1.233,   5.759e-4
1.234,   5.821e-4
1.235,   5.967e-4
1.236,   6.262e-4
1.237,   6.548e-4
1.238,   6.352e-4
1.239,   6.173e-4
1.240,   5.900e-4
1.241,   5.851e-4
1.242,   5.925e-4
1.243,   6.488e-4
1.244,   6.634e-4
1.245,   6.383e-4
1.246,   6.092e-4
1.247,   5.962e-4
1.248,   5.980e-4
1.249,   6.369e-4
1.250,   6.889e-4
1.251,   6.587e-4
1.252,   6.151e-4
1.253,   6.100e-4
1.254,   6.047e-4
1.255,   6.285e-4
1.256,   6.936e-4
1.257,   6.772e-4
1.258,   6.362e-4
1.259,   6.233e-4
1.260,   6.170e-4
1.261,   6.337e-4
1.262,   6.837e-4
1.263,   7.019e-4
1.264,   6.528e-4
1.265,   6.296e-4
1.266,   6.233e-4
1.267,   6.317e-4
1.268,   6.760e-4
1.269,   7.069e-4
1.270,   6.712e-4
1.271,   6.588e-4
1.272,   6.485e-4
1.273,   6.442e-4
1.274,   6.701e-4
1.275,   7.174e-4
1.276,   7.013e-4
1.277,   6.557e-4
1.278,   6.614e-4
1.279,   6.395e-4
1.280,   6.620e-4
1.281,   7.218e-4
1.282,   7.203e-4
1.283,   6.853e-4
1.284,   6.727e-4
1.285,   6.611e-4
1.286,   6.632e-4
1.287,   7.143e-4
1.288,   7.514e-4
1.289,   7.023e-4
1.290,   6.794e-4
1.291,   6.679e-4
1.292,   6.689e-4
1.293,   7.081e-4
1.294,   7.554e-4
1.295,   7.314e-4
1.296,   6.998e-4
1.297,   6.916e-4
1.298,   6.829e-4
1.299,   6.948e-4
1.300,   7.559e-4
1.301,   7.615e-4
1.302,   7.142e-4
1.303,   6.909e-4
1.304,   6.943e-4
1.305,   6.994e-4
1.306,   7.693e-4
1.307,   7.836e-4
1.308,   7.351e-4
1.309,   7.024e-4
1.310,   6.988e-4
1.311,   7.013e-4
1.312,   7.521e-4
1.313,   8.030e-4
1.314,   7.763e-4
1.315,   7.169e-4
1.316,   7.290e-4
1.317,   7.106e-4
1.318,   7.406e-4
1.319,   7.874e-4
1.320,   7.955e-4
1.321,   7.462e-4
1.322,   7.425e-4
1.323,   7.349e-4
1.324,   7.245e-4
1.325,   7.949e-4
1.326,   8.310e-4
1.327,   7.806e-4
1.328,   7.505e-4
1.329,   7.339e-4
1.330,   7.455e-4
1.331,   7.878e-4
1.332,   8.346e-4
1.333,   7.841e-4
1.334,   7.686e-4
1.335,   7.787e-4
1.336,   7.565e-4
1.337,   7.848e-4
1.338,   8.668e-4
1.339,   8.373e-4
1.340,   7.777e-4
1.341,   7.624e-4
1.342,   7.538e-4
1.343,   7.846e-4
1.344,   8.564e-4
1.345,   8.612e-4
1.346,   8.157e-4
1.347,   7.929e-4
1.348,   7.826e-4
1.349,   7.846e-4
1.350,   8.376e-4
1.351,   8.698e-4
1.352,   8.462e-4
1.353,   8.183e-4
1.354,   8.104e-4
1.355,   7.825e-4
1.356,   8.295e-4
1.357,   9.037e-4
1.358,   8.755e-4
1.359,   8.430e-4
1.360,   8.423e-4
1.361,   8.126e-4
1.362,   8.352e-4
1.363,   9.191e-4
1.364,   9.272e-4
1.365,   8.651e-4
1.366,   8.451e-4
1.367,   8.298e-4
1.368,   8.386e-4
1.369,   9.137e-4
1.370,   9.493e-4
1.371,   9.336e-4
1.372,   8.842e-4
1.373,   8.511e-4
1.374,   8.518e-4
1.375,   9.152e-4
1.376,   9.776e-4
1.377,   9.380e-4
1.378,   9.172e-4
1.379,   9.296e-4
1.380,   8.951e-4
1.381,   9.209e-4
1.382,   1.017e-3
1.383,   9.732e-4
1.384,   9.415e-4
1.385,   9.604e-4
1.386,   9.452e-4
1.387,   9.694e-4
1.388,   1.043e-3
1.389,   1.064e-3
1.390,   9.883e-4
1.391,   1.004e-3
1.392,   9.906e-4
1.393,   9.817e-4
1.394,   1.066e-3
1.395,   1.136e-3
1.396,   1.066e-3
1.397,   1.044e-3
1.398,   1.047e-3
1.399,   1.056e-3
1.400,   1.111e-3
1.401,   1.181e-3
1.402,   1.168e-3
1.403,   1.153e-3
1.404,   1.171e-3
1.405,   1.142e-3
1.406,   1.151e-3
1.407,   1.248e-3
1.408,   1.305e-3
1.409,   1.288e-3
1.410,   1.313e-3
1.411,   1.297e-3
1.412,   1.274e-3
1.413,   1.373e-3
1.414,   1.448e-3
1.415,   1.440e-3
1.416,   1.472e-3
1.417,   1.483e-3
1.418,   1.453e-3
1.419,   1.524e-3
1.420,   1.681e-3
1.421,   1.688e-3
1.422,   1.714e-3
1.423,   1.782e-3
1.424,   1.755e-3
1.425,   1.788e-3
1.426,   1.939e-3
1.427,   2.026e-3
1.428,   2.030e-3
1.429,   2.111e-3
1.430,   2.104e-3
1.431,   2.150e-3
1.432,   2.334e-3
1.433,   2.513e-3
1.434,   2.561e-3
1.435,   2.661e-3
1.436,   2.708e-3
1.437,   2.737e-3
1.438,   2.936e-3
1.439,   3.195e-3
1.440,   3.264e-3
1.441,   3.366e-3
1.442,   3.548e-3
1.443,   3.587e-3
1.444,   3.728e-3
1.445,   4.073e-3
1.446,   4.245e-3
1.447,   4.377e-3
1.448,   4.677e-3
1.449,   4.705e-3
1.450,   4.810e-3
1.451,   5.272e-3
1.452,   5.479e-3
1.453,   5.544e-3
1.454,   5.888e-3
1.455,   6.013e-3
1.456,   6.113e-3
1.457,   6.642e-3
1.458,   7.043e-3
1.459,   7.229e-3
1.460,   7.506e-3
1.461,   7.569e-3
1.462,   7.422e-3
1.463,   7.792e-3
1.464,   8.327e-3
1.465,   8.684e-3
1.466,   8.954e-3
1.467,   8.987e-3
1.468,   8.945e-3
1.469,   9.221e-3
1.470,   9.431e-3
1.471,   9.463e-3
1.472,   9.610e-3
1.473,   9.704e-3
1.474,   9.702e-3
1.475,   9.937e-3
1.476,   1.006e-2
1.477,   1.003e-2
1.478,   1.007e-2
1.479,   1.007e-2
1.480,   1.007e-2
1.481,   1.007e-2
1.482,   1.007e-2
1.483,   1.007e-2
1.484,   1.007e-2
1.485,   1.007e-2
1.486,   1.007e-2
1.487,   1.007e-2
1.488,   1.007e-2
1.489,   1.007e-2
1.490,   1.007e-2
1.491,   1.007e-2
1.492,   1.007e-2
1.493,   1.007e-2