File: Experimental Records and Raw Data/batch5/final500/B5_BEST_500_#1_Full(#1)-258mV.txt
June 8, 2023   20:57:59
Linear Sweep Voltammetry
File: d:\current work\al_oer\electrochemical test data\batch 5\500\B5_BEST_500_#1_Full(#1)-258mV.txt
Data Source:  Experiment
Instrument Model:  CHI660E
Header:
Note:

Init E (V) = 0.905

Final E (V) = 1.551

Scan Rate (V/s) = 0.010
Sample Interval (V) = 0.001
Quiet Time (sec) = 2
Sensitivity (A/V) = 0.001
Comp R (ohm) = 4.2

Results:

Channel 1:

Potential/V, Current/A
0.905,   1.801e-4
0.906,   2.036e-4
0.907,   2.080e-4
0.908,   2.088e-4
0.909,   2.034e-4
0.910,   2.021e-4
0.911,   2.074e-4
0.912,   2.028e-4
0.913,   1.994e-4
0.914,   1.999e-4
0.915,   2.011e-4
0.916,   1.981e-4
0.917,   1.949e-4
0.918,   1.961e-4
0.919,   1.990e-4
0.920,   1.924e-4
0.921,   1.911e-4
0.922,   1.923e-4
0.923,   1.939e-4
0.924,   1.893e-4
0.925,   1.878e-4
0.926,   1.891e-4
0.927,   1.914e-4
0.928,   1.851e-4
0.929,   1.845e-4
0.930,   1.848e-4
0.931,   1.871e-4
0.932,   1.814e-4
0.933,   1.802e-4
0.934,   1.803e-4
0.935,   1.846e-4
0.936,   1.787e-4
0.937,   1.783e-4
0.938,   1.786e-4
0.939,   1.815e-4
0.940,   1.758e-4
0.941,   1.753e-4
0.942,   1.762e-4
0.943,   1.788e-4
0.944,   1.722e-4
0.945,   1.742e-4
0.946,   1.741e-4
0.947,   1.738e-4
0.948,   1.706e-4
0.949,   1.710e-4
0.950,   1.706e-4
0.951,   1.735e-4
0.952,   1.676e-4
0.953,   1.690e-4
0.954,   1.685e-4
0.955,   1.701e-4
0.956,   1.659e-4
0.957,   1.667e-4
0.958,   1.670e-4
0.959,   1.682e-4
0.960,   1.636e-4
0.961,   1.652e-4
0.962,   1.654e-4
0.963,   1.654e-4
0.964,   1.619e-4
0.965,   1.635e-4
0.966,   1.649e-4
0.967,   1.631e-4
0.968,   1.594e-4
0.969,   1.616e-4
0.970,   1.619e-4
0.971,   1.606e-4
0.972,   1.599e-4
0.973,   1.595e-4
0.974,   1.603e-4
0.975,   1.583e-4
0.976,   1.597e-4
0.977,   1.566e-4
0.978,   1.592e-4
0.979,   1.560e-4
0.980,   1.583e-4
0.981,   1.556e-4
0.982,   1.575e-4
0.983,   1.554e-4
0.984,   1.563e-4
0.985,   1.537e-4
0.986,   1.562e-4
0.987,   1.534e-4
0.988,   1.559e-4
0.989,   1.524e-4
0.990,   1.555e-4
0.991,   1.519e-4
0.992,   1.540e-4
0.993,   1.511e-4
0.994,   1.539e-4
0.995,   1.507e-4
0.996,   1.530e-4
0.997,   1.502e-4
0.998,   1.524e-4
0.999,   1.500e-4
1.000,   1.515e-4
1.001,   1.484e-4
1.002,   1.518e-4
1.003,   1.491e-4
1.004,   1.506e-4
1.005,   1.473e-4
1.006,   1.508e-4
1.007,   1.496e-4
1.008,   1.489e-4
1.009,   1.469e-4
1.010,   1.496e-4
1.011,   1.476e-4
1.012,   1.464e-4
1.013,   1.456e-4
1.014,   1.481e-4
1.015,   1.474e-4
1.016,   1.462e-4
1.017,   1.456e-4
1.018,   1.472e-4
1.019,   1.467e-4
1.020,   1.465e-4
1.021,   1.448e-4
1.022,   1.463e-4
1.023,   1.462e-4
1.024,   1.440e-4
1.025,   1.450e-4
1.026,   1.445e-4
1.027,   1.451e-4
1.028,   1.438e-4
1.029,   1.451e-4
1.030,   1.430e-4
1.031,   1.448e-4
1.032,   1.431e-4
1.033,   1.423e-4
1.034,   1.419e-4
1.035,   1.442e-4
1.036,   1.425e-4
1.037,   1.447e-4
1.038,   1.402e-4
1.039,   1.438e-4
1.040,   1.413e-4
1.041,   1.436e-4
1.042,   1.409e-4
1.043,   1.440e-4
1.044,   1.417e-4
1.045,   1.419e-4
1.046,   1.400e-4
1.047,   1.423e-4
1.048,   1.407e-4
1.049,   1.426e-4
1.050,   1.399e-4
1.051,   1.419e-4
1.052,   1.404e-4
1.053,   1.421e-4
1.054,   1.394e-4
1.055,   1.426e-4
1.056,   1.399e-4
1.057,   1.419e-4
1.058,   1.379e-4
1.059,   1.406e-4
1.060,   1.404e-4
1.061,   1.416e-4
1.062,   1.383e-4
1.063,   1.408e-4
1.064,   1.397e-4
1.065,   1.415e-4
1.066,   1.387e-4
1.067,   1.405e-4
1.068,   1.403e-4
1.069,   1.404e-4
1.070,   1.370e-4
1.071,   1.414e-4
1.072,   1.401e-4
1.073,   1.406e-4
1.074,   1.367e-4
1.075,   1.411e-4
1.076,   1.403e-4
1.077,   1.410e-4
1.078,   1.359e-4
1.079,   1.434e-4
1.080,   1.405e-4
1.081,   1.396e-4
1.082,   1.367e-4
1.083,   1.401e-4
1.084,   1.400e-4
1.085,   1.391e-4
1.086,   1.369e-4
1.087,   1.420e-4
1.088,   1.399e-4
1.089,   1.392e-4
1.090,   1.368e-4
1.091,   1.417e-4
1.092,   1.399e-4
1.093,   1.404e-4
1.094,   1.379e-4
1.095,   1.406e-4
1.096,   1.415e-4
1.097,   1.388e-4
1.098,   1.382e-4
1.099,   1.390e-4
1.100,   1.426e-4
1.101,   1.396e-4
1.102,   1.372e-4
1.103,   1.401e-4
1.104,   1.428e-4
1.105,   1.388e-4
1.106,   1.388e-4
1.107,   1.396e-4
1.108,   1.445e-4
1.109,   1.382e-4
1.110,   1.391e-4
1.111,   1.431e-4
1.112,   1.428e-4
1.113,   1.394e-4
1.114,   1.404e-4
1.115,   1.419e-4
1.116,   1.429e-4
1.117,   1.389e-4
1.118,   1.407e-4
1.119,   1.423e-4
1.120,   1.413e-4
1.121,   1.393e-4
1.122,   1.417e-4
1.123,   1.426e-4
1.124,   1.436e-4
1.125,   1.396e-4
1.126,   1.424e-4
1.127,   1.432e-4
1.128,   1.437e-4
1.129,   1.399e-4
1.130,   1.432e-4
1.131,   1.444e-4
1.132,   1.444e-4
1.133,   1.398e-4
1.134,   1.439e-4
1.135,   1.465e-4
1.136,   1.444e-4
1.137,   1.399e-4
1.138,   1.446e-4
1.139,   1.450e-4
1.140,   1.446e-4
1.141,   1.435e-4
1.142,   1.456e-4
1.143,   1.463e-4
1.144,   1.439e-4
1.145,   1.423e-4
1.146,   1.464e-4
1.147,   1.470e-4
1.148,   1.456e-4
1.149,   1.432e-4
1.150,   1.476e-4
1.151,   1.483e-4
1.152,   1.457e-4
1.153,   1.450e-4
1.154,   1.481e-4
1.155,   1.487e-4
1.156,   1.466e-4
1.157,   1.455e-4
1.158,   1.503e-4
1.159,   1.511e-4
1.160,   1.466e-4
1.161,   1.461e-4
1.162,   1.501e-4
1.163,   1.519e-4
1.164,   1.473e-4
1.165,   1.462e-4
1.166,   1.501e-4
1.167,   1.521e-4
1.168,   1.484e-4
1.169,   1.503e-4
1.170,   1.501e-4
1.171,   1.533e-4
1.172,   1.494e-4
1.173,   1.495e-4
1.174,   1.538e-4
1.175,   1.543e-4
1.176,   1.505e-4
1.177,   1.513e-4
1.178,   1.535e-4
1.179,   1.551e-4
1.180,   1.507e-4
1.181,   1.517e-4
1.182,   1.550e-4
1.183,   1.562e-4
1.184,   1.514e-4
1.185,   1.558e-4
1.186,   1.561e-4
1.187,   1.565e-4
1.188,   1.547e-4
1.189,   1.562e-4
1.190,   1.563e-4
1.191,   1.583e-4
1.192,   1.523e-4
1.193,   1.586e-4
1.194,   1.600e-4
1.195,   1.592e-4
1.196,   1.535e-4
1.197,   1.600e-4
1.198,   1.602e-4
1.199,   1.598e-4
1.200,   1.556e-4
1.201,   1.633e-4
1.202,   1.619e-4
1.203,   1.598e-4
1.204,   1.573e-4
1.205,   1.643e-4
1.206,   1.654e-4
1.207,   1.600e-4
1.208,   1.584e-4
1.209,   1.662e-4
1.210,   1.684e-4
1.211,   1.619e-4
1.212,   1.605e-4
1.213,   1.672e-4
1.214,   1.679e-4
1.215,   1.633e-4
1.216,   1.612e-4
1.217,   1.704e-4
1.218,   1.678e-4
1.219,   1.646e-4
1.220,   1.646e-4
1.221,   1.694e-4
1.222,   1.693e-4
1.223,   1.670e-4
1.224,   1.659e-4
1.225,   1.717e-4
1.226,   1.724e-4
1.227,   1.679e-4
1.228,   1.680e-4
1.229,   1.726e-4
1.230,   1.744e-4
1.231,   1.696e-4
1.232,   1.696e-4
1.233,   1.753e-4
1.234,   1.782e-4
1.235,   1.702e-4
1.236,   1.717e-4
1.237,   1.776e-4
1.238,   1.773e-4
1.239,   1.727e-4
1.240,   1.729e-4
1.241,   1.783e-4
1.242,   1.779e-4
1.243,   1.737e-4
1.244,   1.767e-4
1.245,   1.813e-4
1.246,   1.787e-4
1.247,   1.781e-4
1.248,   1.781e-4
1.249,   1.822e-4
1.250,   1.815e-4
1.251,   1.759e-4
1.252,   1.815e-4
1.253,   1.830e-4
1.254,   1.821e-4
1.255,   1.769e-4
1.256,   1.825e-4
1.257,   1.853e-4
1.258,   1.835e-4
1.259,   1.802e-4
1.260,   1.869e-4
1.261,   1.862e-4
1.262,   1.835e-4
1.263,   1.824e-4
1.264,   1.854e-4
1.265,   1.891e-4
1.266,   1.875e-4
1.267,   1.819e-4
1.268,   1.894e-4
1.269,   1.890e-4
1.270,   1.890e-4
1.271,   1.852e-4
1.272,   1.905e-4
1.273,   1.945e-4
1.274,   1.869e-4
1.275,   1.853e-4
1.276,   1.935e-4
1.277,   1.936e-4
1.278,   1.910e-4
1.279,   1.870e-4
1.280,   1.948e-4
1.281,   1.961e-4
1.282,   1.912e-4
1.283,   1.882e-4
1.284,   1.974e-4
1.285,   1.972e-4
1.286,   1.931e-4
1.287,   1.899e-4
1.288,   1.982e-4
1.289,   1.996e-4
1.290,   1.929e-4
1.291,   1.927e-4
1.292,   2.014e-4
1.293,   1.984e-4
1.294,   1.965e-4
1.295,   1.951e-4
1.296,   2.018e-4
1.297,   1.995e-4
1.298,   1.951e-4
1.299,   1.980e-4
1.300,   2.043e-4
1.301,   1.996e-4
1.302,   1.955e-4
1.303,   2.040e-4
1.304,   2.041e-4
1.305,   2.005e-4
1.306,   1.961e-4
1.307,   2.051e-4
1.308,   2.062e-4
1.309,   2.011e-4
1.310,   1.992e-4
1.311,   2.074e-4
1.312,   2.062e-4
1.313,   2.046e-4
1.314,   1.984e-4
1.315,   2.067e-4
1.316,   2.073e-4
1.317,   2.053e-4
1.318,   1.993e-4
1.319,   2.093e-4
1.320,   2.086e-4
1.321,   2.072e-4
1.322,   2.014e-4
1.323,   2.100e-4
1.324,   2.111e-4
1.325,   2.076e-4
1.326,   2.024e-4
1.327,   2.144e-4
1.328,   2.078e-4
1.329,   2.104e-4
1.330,   2.039e-4
1.331,   2.129e-4
1.332,   2.149e-4
1.333,   2.084e-4
1.334,   2.055e-4
1.335,   2.144e-4
1.336,   2.147e-4
1.337,   2.108e-4
1.338,   2.079e-4
1.339,   2.161e-4
1.340,   2.145e-4
1.341,   2.113e-4
1.342,   2.110e-4
1.343,   2.166e-4
1.344,   2.154e-4
1.345,   2.121e-4
1.346,   2.136e-4
1.347,   2.172e-4
1.348,   2.162e-4
1.349,   2.154e-4
1.350,   2.121e-4
1.351,   2.207e-4
1.352,   2.175e-4
1.353,   2.160e-4
1.354,   2.165e-4
1.355,   2.220e-4
1.356,   2.188e-4
1.357,   2.126e-4
1.358,   2.200e-4
1.359,   2.230e-4
1.360,   2.206e-4
1.361,   2.154e-4
1.362,   2.220e-4
1.363,   2.221e-4
1.364,   2.221e-4
1.365,   2.159e-4
1.366,   2.241e-4
1.367,   2.247e-4
1.368,   2.233e-4
1.369,   2.144e-4
1.370,   2.245e-4
1.371,   2.267e-4
1.372,   2.284e-4
1.373,   2.182e-4
1.374,   2.255e-4
1.375,   2.306e-4
1.376,   2.254e-4
1.377,   2.206e-4
1.378,   2.291e-4
1.379,   2.320e-4
1.380,   2.290e-4
1.381,   2.225e-4
1.382,   2.313e-4
1.383,   2.363e-4
1.384,   2.308e-4
1.385,   2.256e-4
1.386,   2.350e-4
1.387,   2.349e-4
1.388,   2.327e-4
1.389,   2.286e-4
1.390,   2.359e-4
1.391,   2.397e-4
1.392,   2.347e-4
1.393,   2.333e-4
1.394,   2.397e-4
1.395,   2.418e-4
1.396,   2.373e-4
1.397,   2.372e-4
1.398,   2.421e-4
1.399,   2.478e-4
1.400,   2.412e-4
1.401,   2.373e-4
1.402,   2.449e-4
1.403,   2.549e-4
1.404,   2.417e-4
1.405,   2.436e-4
1.406,   2.501e-4
1.407,   2.602e-4
1.408,   2.454e-4
1.409,   2.507e-4
1.410,   2.521e-4
1.411,   2.628e-4
1.412,   2.517e-4
1.413,   2.567e-4
1.414,   2.592e-4
1.415,   2.710e-4
1.416,   2.551e-4
1.417,   2.610e-4
1.418,   2.658e-4
1.419,   2.780e-4
1.420,   2.640e-4
1.421,   2.693e-4
1.422,   2.774e-4
1.423,   2.829e-4
1.424,   2.692e-4
1.425,   2.802e-4
1.426,   2.886e-4
1.427,   2.916e-4
1.428,   2.801e-4
1.429,   2.898e-4
1.430,   3.048e-4
1.431,   3.052e-4
1.432,   2.904e-4
1.433,   3.034e-4
1.434,   3.146e-4
1.435,   3.179e-4
1.436,   3.098e-4
1.437,   3.177e-4
1.438,   3.397e-4
1.439,   3.389e-4
1.440,   3.236e-4
1.441,   3.382e-4
1.442,   3.642e-4
1.443,   3.594e-4
1.444,   3.499e-4
1.445,   3.652e-4
1.446,   3.896e-4
1.447,   3.908e-4
1.448,   3.813e-4
1.449,   3.989e-4
1.450,   4.283e-4
1.451,   4.256e-4
1.452,   4.219e-4
1.453,   4.375e-4
1.454,   4.771e-4
1.455,   4.763e-4
1.456,   4.718e-4
1.457,   4.905e-4
1.458,   5.443e-4
1.459,   5.325e-4
1.460,   5.432e-4
1.461,   5.614e-4
1.462,   6.196e-4
1.463,   6.111e-4
1.464,   6.207e-4
1.465,   6.519e-4
1.466,   7.254e-4
1.467,   7.069e-4
1.468,   7.253e-4
1.469,   7.672e-4
1.470,   8.478e-4
1.471,   8.317e-4
1.472,   8.532e-4
1.473,   9.143e-4
1.474,   1.012e-3
1.475,   9.842e-4
1.476,   1.013e-3
1.477,   1.095e-3
1.478,   1.210e-3
1.479,   1.171e-3
1.480,   1.224e-3
1.481,   1.317e-3
1.482,   1.443e-3
1.483,   1.420e-3
1.484,   1.476e-3
1.485,   1.593e-3
1.486,   1.738e-3
1.487,   1.703e-3
1.488,   1.775e-3
1.489,   1.926e-3
1.490,   2.096e-3
1.491,   2.059e-3
1.492,   2.134e-3
1.493,   2.330e-3
1.494,   2.540e-3
1.495,   2.487e-3
1.496,   2.561e-3
1.497,   2.810e-3
1.498,   3.049e-3
1.499,   2.970e-3
1.500,   3.071e-3
1.501,   3.400e-3
1.502,   3.628e-3
1.503,   3.538e-3
1.504,   3.666e-3
1.505,   4.108e-3
1.506,   4.264e-3
1.507,   4.219e-3
1.508,   4.362e-3
1.509,   4.889e-3
1.510,   5.020e-3
1.511,   4.947e-3
1.512,   5.120e-3
1.513,   5.701e-3
1.514,   5.758e-3
1.515,   5.707e-3
1.516,   5.844e-3
1.517,   6.380e-3
1.518,   6.637e-3
1.519,   6.595e-3
1.520,   6.687e-3
1.521,   7.269e-3
1.522,   7.541e-3
1.523,   7.444e-3
1.524,   7.513e-3
1.525,   8.137e-3
1.526,   8.399e-3
1.527,   8.285e-3
1.528,   8.431e-3
1.529,   9.009e-3
1.530,   9.187e-3
1.531,   9.153e-3
1.532,   9.319e-3
1.533,   9.696e-3
1.534,   9.845e-3
1.535,   9.906e-3
1.536,   9.895e-3
1.537,   1.005e-2
1.538,   1.005e-2
1.539,   1.006e-2
1.540,   1.007e-2
1.541,   1.007e-2
1.542,   1.007e-2
1.543,   1.007e-2
1.544,   1.007e-2
1.545,   1.007e-2
1.546,   1.007e-2
1.547,   1.007e-2
1.548,   1.007e-2
1.549,   1.007e-2
1.550,   1.007e-2
1.551,   1.007e-2