File: Experimental Records and Raw Data/batch5/final500/B5_BEST_500_#1_Full(#7)-225mV.txt
June 9, 2023   15:22:06
Linear Sweep Voltammetry
File: d:\current work\al_oer\electrochemical test data\batch 5\500\B5_BEST_500_#1_Full(#7)-225mV.txt
Data Source:  Experiment
Instrument Model:  CHI660E
Header:
Note:

Init E (V) = 0.900

Final E (V) = 1.543

Scan Rate (V/s) = 0.010
Sample Interval (V) = 0.001
Quiet Time (sec) = 2
Sensitivity (A/V) = 0.001
Comp R (ohm) = 4.6

Results:

Channel 1:

Potential/V, Current/A
0.900,   1.789e-4
0.901,   2.064e-4
0.902,   2.085e-4
0.903,   2.067e-4
0.904,   2.043e-4
0.905,   2.025e-4
0.906,   2.033e-4
0.907,   2.051e-4
0.908,   2.048e-4
0.909,   2.014e-4
0.910,   1.988e-4
0.911,   1.989e-4
0.912,   1.991e-4
0.913,   1.990e-4
0.914,   1.967e-4
0.915,   1.944e-4
0.916,   1.924e-4
0.917,   1.936e-4
0.918,   1.929e-4
0.919,   1.942e-4
0.920,   1.911e-4
0.921,   1.893e-4
0.922,   1.890e-4
0.923,   1.889e-4
0.924,   1.892e-4
0.925,   1.885e-4
0.926,   1.840e-4
0.927,   1.837e-4
0.928,   1.830e-4
0.929,   1.850e-4
0.930,   1.857e-4
0.931,   1.831e-4
0.932,   1.811e-4
0.933,   1.813e-4
0.934,   1.805e-4
0.935,   1.831e-4
0.936,   1.788e-4
0.937,   1.774e-4
0.938,   1.774e-4
0.939,   1.756e-4
0.940,   1.766e-4
0.941,   1.790e-4
0.942,   1.777e-4
0.943,   1.734e-4
0.944,   1.745e-4
0.945,   1.751e-4
0.946,   1.744e-4
0.947,   1.738e-4
0.948,   1.721e-4
0.949,   1.700e-4
0.950,   1.697e-4
0.951,   1.727e-4
0.952,   1.732e-4
0.953,   1.720e-4
0.954,   1.695e-4
0.955,   1.690e-4
0.956,   1.693e-4
0.957,   1.698e-4
0.958,   1.693e-4
0.959,   1.680e-4
0.960,   1.662e-4
0.961,   1.648e-4
0.962,   1.666e-4
0.963,   1.685e-4
0.964,   1.670e-4
0.965,   1.642e-4
0.966,   1.637e-4
0.967,   1.656e-4
0.968,   1.649e-4
0.969,   1.652e-4
0.970,   1.644e-4
0.971,   1.621e-4
0.972,   1.615e-4
0.973,   1.623e-4
0.974,   1.637e-4
0.975,   1.640e-4
0.976,   1.620e-4
0.977,   1.607e-4
0.978,   1.612e-4
0.979,   1.617e-4
0.980,   1.637e-4
0.981,   1.615e-4
0.982,   1.589e-4
0.983,   1.577e-4
0.984,   1.582e-4
0.985,   1.606e-4
0.986,   1.616e-4
0.987,   1.590e-4
0.988,   1.582e-4
0.989,   1.580e-4
0.990,   1.584e-4
0.991,   1.595e-4
0.992,   1.589e-4
0.993,   1.559e-4
0.994,   1.558e-4
0.995,   1.555e-4
0.996,   1.578e-4
0.997,   1.588e-4
0.998,   1.572e-4
0.999,   1.556e-4
1.000,   1.553e-4
1.001,   1.559e-4
1.002,   1.572e-4
1.003,   1.567e-4
1.004,   1.548e-4
1.005,   1.534e-4
1.006,   1.530e-4
1.007,   1.557e-4
1.008,   1.564e-4
1.009,   1.553e-4
1.010,   1.540e-4
1.011,   1.540e-4
1.012,   1.536e-4
1.013,   1.532e-4
1.014,   1.557e-4
1.015,   1.531e-4
1.016,   1.527e-4
1.017,   1.515e-4
1.018,   1.522e-4
1.019,   1.545e-4
1.020,   1.541e-4
1.021,   1.537e-4
1.022,   1.526e-4
1.023,   1.522e-4
1.024,   1.537e-4
1.025,   1.539e-4
1.026,   1.528e-4
1.027,   1.492e-4
1.028,   1.498e-4
1.029,   1.516e-4
1.030,   1.536e-4
1.031,   1.535e-4
1.032,   1.512e-4
1.033,   1.509e-4
1.034,   1.516e-4
1.035,   1.519e-4
1.036,   1.534e-4
1.037,   1.522e-4
1.038,   1.494e-4
1.039,   1.495e-4
1.040,   1.501e-4
1.041,   1.544e-4
1.042,   1.531e-4
1.043,   1.511e-4
1.044,   1.504e-4
1.045,   1.503e-4
1.046,   1.517e-4
1.047,   1.529e-4
1.048,   1.516e-4
1.049,   1.499e-4
1.050,   1.487e-4
1.051,   1.493e-4
1.052,   1.526e-4
1.053,   1.525e-4
1.054,   1.507e-4
1.055,   1.505e-4
1.056,   1.504e-4
1.057,   1.509e-4
1.058,   1.511e-4
1.059,   1.528e-4
1.060,   1.484e-4
1.061,   1.486e-4
1.062,   1.501e-4
1.063,   1.510e-4
1.064,   1.529e-4
1.065,   1.516e-4
1.066,   1.505e-4
1.067,   1.512e-4
1.068,   1.518e-4
1.069,   1.525e-4
1.070,   1.525e-4
1.071,   1.497e-4
1.072,   1.488e-4
1.073,   1.495e-4
1.074,   1.519e-4
1.075,   1.537e-4
1.076,   1.526e-4
1.077,   1.509e-4
1.078,   1.509e-4
1.079,   1.517e-4
1.080,   1.534e-4
1.081,   1.532e-4
1.082,   1.521e-4
1.083,   1.499e-4
1.084,   1.501e-4
1.085,   1.524e-4
1.086,   1.552e-4
1.087,   1.527e-4
1.088,   1.520e-4
1.089,   1.516e-4
1.090,   1.528e-4
1.091,   1.538e-4
1.092,   1.547e-4
1.093,   1.543e-4
1.094,   1.510e-4
1.095,   1.516e-4
1.096,   1.528e-4
1.097,   1.556e-4
1.098,   1.552e-4
1.099,   1.543e-4
1.100,   1.522e-4
1.101,   1.548e-4
1.102,   1.542e-4
1.103,   1.564e-4
1.104,   1.549e-4
1.105,   1.532e-4
1.106,   1.528e-4
1.107,   1.541e-4
1.108,   1.573e-4
1.109,   1.577e-4
1.110,   1.559e-4
1.111,   1.549e-4
1.112,   1.554e-4
1.113,   1.587e-4
1.114,   1.583e-4
1.115,   1.567e-4
1.116,   1.555e-4
1.117,   1.542e-4
1.118,   1.556e-4
1.119,   1.592e-4
1.120,   1.609e-4
1.121,   1.583e-4
1.122,   1.574e-4
1.123,   1.577e-4
1.124,   1.591e-4
1.125,   1.609e-4
1.126,   1.620e-4
1.127,   1.582e-4
1.128,   1.562e-4
1.129,   1.589e-4
1.130,   1.598e-4
1.131,   1.629e-4
1.132,   1.619e-4
1.133,   1.604e-4
1.134,   1.597e-4
1.135,   1.615e-4
1.136,   1.638e-4
1.137,   1.641e-4
1.138,   1.610e-4
1.139,   1.599e-4
1.140,   1.604e-4
1.141,   1.625e-4
1.142,   1.663e-4
1.143,   1.661e-4
1.144,   1.625e-4
1.145,   1.623e-4
1.146,   1.641e-4
1.147,   1.667e-4
1.148,   1.675e-4
1.149,   1.647e-4
1.150,   1.618e-4
1.151,   1.642e-4
1.152,   1.638e-4
1.153,   1.694e-4
1.154,   1.716e-4
1.155,   1.647e-4
1.156,   1.650e-4
1.157,   1.665e-4
1.158,   1.697e-4
1.159,   1.717e-4
1.160,   1.684e-4
1.161,   1.660e-4
1.162,   1.657e-4
1.163,   1.684e-4
1.164,   1.724e-4
1.165,   1.753e-4
1.166,   1.695e-4
1.167,   1.680e-4
1.168,   1.701e-4
1.169,   1.730e-4
1.170,   1.753e-4
1.171,   1.757e-4
1.172,   1.685e-4
1.173,   1.692e-4
1.174,   1.714e-4
1.175,   1.776e-4
1.176,   1.798e-4
1.177,   1.741e-4
1.178,   1.721e-4
1.179,   1.740e-4
1.180,   1.774e-4
1.181,   1.803e-4
1.182,   1.804e-4
1.183,   1.752e-4
1.184,   1.728e-4
1.185,   1.746e-4
1.186,   1.817e-4
1.187,   1.835e-4
1.188,   1.804e-4
1.189,   1.769e-4
1.190,   1.781e-4
1.191,   1.833e-4
1.192,   1.851e-4
1.193,   1.843e-4
1.194,   1.789e-4
1.195,   1.784e-4
1.196,   1.793e-4
1.197,   1.857e-4
1.198,   1.898e-4
1.199,   1.880e-4
1.200,   1.825e-4
1.201,   1.833e-4
1.202,   1.846e-4
1.203,   1.914e-4
1.204,   1.920e-4
1.205,   1.865e-4
1.206,   1.831e-4
1.207,   1.861e-4
1.208,   1.878e-4
1.209,   1.955e-4
1.210,   1.942e-4
1.211,   1.907e-4
1.212,   1.854e-4
1.213,   1.896e-4
1.214,   1.969e-4
1.215,   1.993e-4
1.216,   1.954e-4
1.217,   1.872e-4
1.218,   1.895e-4
1.219,   1.931e-4
1.220,   2.004e-4
1.221,   2.016e-4
1.222,   1.960e-4
1.223,   1.922e-4
1.224,   1.957e-4
1.225,   2.020e-4
1.226,   2.080e-4
1.227,   2.011e-4
1.228,   1.925e-4
1.229,   1.956e-4
1.230,   1.991e-4
1.231,   2.074e-4
1.232,   2.079e-4
1.233,   2.017e-4
1.234,   1.984e-4
1.235,   1.981e-4
1.236,   2.070e-4
1.237,   2.148e-4
1.238,   2.098e-4
1.239,   2.019e-4
1.240,   1.960e-4
1.241,   2.017e-4
1.242,   2.119e-4
1.243,   2.160e-4
1.244,   2.111e-4
1.245,   2.026e-4
1.246,   2.039e-4
1.247,   2.104e-4
1.248,   2.204e-4
1.249,   2.187e-4
1.250,   2.052e-4
1.251,   2.024e-4
1.252,   2.044e-4
1.253,   2.194e-4
1.254,   2.228e-4
1.255,   2.161e-4
1.256,   2.080e-4
1.257,   2.057e-4
1.258,   2.141e-4
1.259,   2.254e-4
1.260,   2.297e-4
1.261,   2.156e-4
1.262,   2.055e-4
1.263,   2.065e-4
1.264,   2.185e-4
1.265,   2.276e-4
1.266,   2.300e-4
1.267,   2.139e-4
1.268,   2.100e-4
1.269,   2.141e-4
1.270,   2.278e-4
1.271,   2.391e-4
1.272,   2.263e-4
1.273,   2.120e-4
1.274,   2.081e-4
1.275,   2.184e-4
1.276,   2.320e-4
1.277,   2.357e-4
1.278,   2.216e-4
1.279,   2.076e-4
1.280,   2.190e-4
1.281,   2.318e-4
1.282,   2.437e-4
1.283,   2.335e-4
1.284,   2.128e-4
1.285,   2.096e-4
1.286,   2.248e-4
1.287,   2.399e-4
1.288,   2.406e-4
1.289,   2.264e-4
1.290,   2.189e-4
1.291,   2.203e-4
1.292,   2.364e-4
1.293,   2.448e-4
1.294,   2.425e-4
1.295,   2.258e-4
1.296,   2.099e-4
1.297,   2.228e-4
1.298,   2.434e-4
1.299,   2.489e-4
1.300,   2.372e-4
1.301,   2.197e-4
1.302,   2.200e-4
1.303,   2.388e-4
1.304,   2.516e-4
1.305,   2.465e-4
1.306,   2.300e-4
1.307,   2.219e-4
1.308,   2.300e-4
1.309,   2.436e-4
1.310,   2.534e-4
1.311,   2.471e-4
1.312,   2.267e-4
1.313,   2.297e-4
1.314,   2.396e-4
1.315,   2.551e-4
1.316,   2.585e-4
1.317,   2.387e-4
1.318,   2.249e-4
1.319,   2.280e-4
1.320,   2.498e-4
1.321,   2.627e-4
1.322,   2.508e-4
1.323,   2.336e-4
1.324,   2.342e-4
1.325,   2.471e-4
1.326,   2.639e-4
1.327,   2.671e-4
1.328,   2.508e-4
1.329,   2.326e-4
1.330,   2.316e-4
1.331,   2.553e-4
1.332,   2.685e-4
1.333,   2.628e-4
1.334,   2.486e-4
1.335,   2.439e-4
1.336,   2.512e-4
1.337,   2.694e-4
1.338,   2.760e-4
1.339,   2.583e-4
1.340,   2.395e-4
1.341,   2.462e-4
1.342,   2.570e-4
1.343,   2.795e-4
1.344,   2.705e-4
1.345,   2.604e-4
1.346,   2.562e-4
1.347,   2.566e-4
1.348,   2.765e-4
1.349,   2.845e-4
1.350,   2.628e-4
1.351,   2.693e-4
1.352,   2.508e-4
1.353,   2.600e-4
1.354,   2.900e-4
1.355,   2.853e-4
1.356,   3.086e-4
1.357,   2.335e-4
1.358,   2.583e-4
1.359,   3.062e-4
1.360,   2.907e-4
1.361,   3.450e-4
1.362,   2.429e-4
1.363,   2.146e-4
1.364,   2.978e-4
1.365,   3.117e-4
1.366,   3.251e-4
1.367,   3.023e-4
1.368,   2.296e-4
1.369,   2.727e-4
1.370,   3.298e-4
1.371,   3.074e-4
1.372,   3.657e-4
1.373,   2.851e-4
1.374,   2.168e-4
1.375,   2.825e-4
1.376,   3.305e-4
1.377,   3.385e-4
1.378,   3.272e-4
1.379,   2.859e-4
1.380,   2.784e-4
1.381,   3.188e-4
1.382,   3.485e-4
1.383,   3.369e-4
1.384,   3.006e-4
1.385,   2.849e-4
1.386,   2.939e-4
1.387,   3.412e-4
1.388,   3.808e-4
1.389,   3.608e-4
1.390,   2.986e-4
1.391,   2.837e-4
1.392,   3.371e-4
1.393,   4.094e-4
1.394,   4.278e-4
1.395,   3.688e-4
1.396,   3.069e-4
1.397,   3.043e-4
1.398,   3.647e-4
1.399,   4.204e-4
1.400,   4.195e-4
1.401,   3.670e-4
1.402,   3.227e-4
1.403,   3.400e-4
1.404,   4.092e-4
1.405,   4.831e-4
1.406,   4.776e-4
1.407,   4.027e-4
1.408,   3.752e-4
1.409,   3.871e-4
1.410,   4.258e-4
1.411,   4.728e-4
1.412,   4.830e-4
1.413,   4.517e-4
1.414,   4.142e-4
1.415,   4.201e-4
1.416,   4.765e-4
1.417,   5.374e-4
1.418,   5.544e-4
1.419,   5.361e-4
1.420,   4.972e-4
1.421,   4.377e-4
1.422,   4.544e-4
1.423,   5.647e-4
1.424,   6.506e-4
1.425,   6.460e-4
1.426,   5.589e-4
1.427,   5.043e-4
1.428,   5.814e-4
1.429,   7.469e-4
1.430,   7.635e-4
1.431,   7.010e-4
1.432,   6.493e-4
1.433,   6.640e-4
1.434,   7.842e-4
1.435,   8.835e-4
1.436,   8.843e-4
1.437,   8.270e-4
1.438,   7.808e-4
1.439,   8.426e-4
1.440,   9.718e-4
1.441,   1.080e-3
1.442,   1.117e-3
1.443,   1.078e-3
1.444,   1.047e-3
1.445,   1.164e-3
1.446,   1.340e-3
1.447,   1.388e-3
1.448,   1.355e-3
1.449,   1.334e-3
1.450,   1.374e-3
1.451,   1.541e-3
1.452,   1.711e-3
1.453,   1.804e-3
1.454,   1.791e-3
1.455,   1.819e-3
1.456,   1.956e-3
1.457,   2.188e-3
1.458,   2.343e-3
1.459,   2.346e-3
1.460,   2.349e-3
1.461,   2.409e-3
1.462,   2.678e-3
1.463,   2.963e-3
1.464,   3.079e-3
1.465,   3.137e-3
1.466,   3.242e-3
1.467,   3.500e-3
1.468,   3.808e-3
1.469,   4.014e-3
1.470,   4.098e-3
1.471,   4.194e-3
1.472,   4.469e-3
1.473,   4.822e-3
1.474,   5.114e-3
1.475,   5.249e-3
1.476,   5.361e-3
1.477,   5.589e-3
1.478,   5.966e-3
1.479,   6.347e-3
1.480,   6.609e-3
1.481,   6.794e-3
1.482,   7.025e-3
1.483,   7.368e-3
1.484,   7.755e-3
1.485,   8.065e-3
1.486,   8.249e-3
1.487,   8.427e-3
1.488,   8.730e-3
1.489,   9.135e-3
1.490,   9.423e-3
1.491,   9.535e-3
1.492,   9.618e-3
1.493,   9.725e-3
1.494,   9.791e-3
1.495,   9.865e-3
1.496,   9.941e-3
1.497,   9.987e-3
1.498,   1.002e-2
1.499,   1.007e-2
1.500,   1.007e-2
1.501,   1.007e-2
1.502,   1.007e-2
1.503,   1.007e-2
1.504,   1.007e-2
1.505,   1.007e-2
1.506,   1.007e-2
1.507,   1.007e-2
1.508,   1.007e-2
1.509,   1.007e-2
1.510,   1.007e-2
1.511,   1.007e-2
1.512,   1.007e-2
1.513,   1.007e-2
1.514,   1.007e-2
1.515,   1.007e-2
1.516,   1.007e-2
1.517,   1.007e-2
1.518,   1.007e-2
1.519,   1.007e-2
1.520,   1.007e-2
1.521,   1.007e-2
1.522,   1.007e-2
1.523,   1.007e-2
1.524,   1.007e-2
1.525,   1.007e-2
1.526,   1.007e-2
1.527,   1.007e-2
1.528,   1.007e-2
1.529,   1.007e-2
1.530,   1.007e-2
1.531,   1.007e-2
1.532,   1.007e-2
1.533,   1.007e-2
1.534,   1.007e-2
1.535,   1.007e-2
1.536,   1.007e-2
1.537,   1.007e-2
1.538,   1.007e-2
1.539,   1.007e-2
1.540,   1.007e-2
1.541,   1.007e-2
1.542,   1.007e-2
1.543,   1.007e-2