File: Experimental Records and Raw Data/batch5/final500/B5_BEST_500_#1_Full(#13)-220mV.txt
June 8, 2023   21:23:22
Linear Sweep Voltammetry
File: d:\current work\al_oer\electrochemical test data\batch 5\500\B5_BEST_500_#1_Full(#13)-220mV.txt
Data Source:  Experiment
Instrument Model:  CHI660E
Header:
Note:

Init E (V) = 0.899

Final E (V) = 1.518

Scan Rate (V/s) = 0.010
Sample Interval (V) = 0.001
Quiet Time (sec) = 2
Sensitivity (A/V) = 0.001
Comp R (ohm) = 4.3

Results:

Channel 1:

Potential/V, Current/A
0.899,   3.565e-4
0.900,   4.480e-4
0.901,   4.614e-4
0.902,   4.932e-4
0.903,   4.676e-4
0.904,   4.455e-4
0.905,   4.455e-4
0.906,   4.459e-4
0.907,   4.707e-4
0.908,   4.646e-4
0.909,   4.397e-4
0.910,   4.363e-4
0.911,   4.303e-4
0.912,   4.491e-4
0.913,   4.600e-4
0.914,   4.265e-4
0.915,   4.191e-4
0.916,   4.204e-4
0.917,   4.311e-4
0.918,   4.537e-4
0.919,   4.236e-4
0.920,   4.088e-4
0.921,   4.117e-4
0.922,   4.132e-4
0.923,   4.409e-4
0.924,   4.279e-4
0.925,   3.979e-4
0.926,   4.009e-4
0.927,   4.010e-4
0.928,   4.214e-4
0.929,   4.292e-4
0.930,   3.978e-4
0.931,   3.895e-4
0.932,   3.936e-4
0.933,   4.055e-4
0.934,   4.223e-4
0.935,   3.938e-4
0.936,   3.831e-4
0.937,   3.869e-4
0.938,   3.897e-4
0.939,   4.184e-4
0.940,   3.946e-4
0.941,   3.757e-4
0.942,   3.809e-4
0.943,   3.804e-4
0.944,   4.058e-4
0.945,   3.970e-4
0.946,   3.733e-4
0.947,   3.720e-4
0.948,   3.738e-4
0.949,   3.910e-4
0.950,   4.006e-4
0.951,   3.749e-4
0.952,   3.649e-4
0.953,   3.661e-4
0.954,   3.761e-4
0.955,   3.987e-4
0.956,   3.744e-4
0.957,   3.592e-4
0.958,   3.624e-4
0.959,   3.685e-4
0.960,   3.910e-4
0.961,   3.787e-4
0.962,   3.559e-4
0.963,   3.591e-4
0.964,   3.571e-4
0.965,   3.827e-4
0.966,   3.831e-4
0.967,   3.589e-4
0.968,   3.523e-4
0.969,   3.499e-4
0.970,   3.679e-4
0.971,   3.854e-4
0.972,   3.586e-4
0.973,   3.470e-4
0.974,   3.508e-4
0.975,   3.563e-4
0.976,   3.821e-4
0.977,   3.637e-4
0.978,   3.407e-4
0.979,   3.472e-4
0.980,   3.488e-4
0.981,   3.735e-4
0.982,   3.679e-4
0.983,   3.417e-4
0.984,   3.435e-4
0.985,   3.458e-4
0.986,   3.638e-4
0.987,   3.712e-4
0.988,   3.424e-4
0.989,   3.384e-4
0.990,   3.430e-4
0.991,   3.528e-4
0.992,   3.715e-4
0.993,   3.483e-4
0.994,   3.353e-4
0.995,   3.407e-4
0.996,   3.426e-4
0.997,   3.673e-4
0.998,   3.520e-4
0.999,   3.348e-4
1.000,   3.354e-4
1.001,   3.394e-4
1.002,   3.596e-4
1.003,   3.579e-4
1.004,   3.360e-4
1.005,   3.318e-4
1.006,   3.358e-4
1.007,   3.509e-4
1.008,   3.603e-4
1.009,   3.424e-4
1.010,   3.307e-4
1.011,   3.356e-4
1.012,   3.397e-4
1.013,   3.619e-4
1.014,   3.424e-4
1.015,   3.242e-4
1.016,   3.319e-4
1.017,   3.341e-4
1.018,   3.616e-4
1.019,   3.490e-4
1.020,   3.281e-4
1.021,   3.290e-4
1.022,   3.315e-4
1.023,   3.534e-4
1.024,   3.524e-4
1.025,   3.291e-4
1.026,   3.271e-4
1.027,   3.308e-4
1.028,   3.398e-4
1.029,   3.565e-4
1.030,   3.298e-4
1.031,   3.248e-4
1.032,   3.291e-4
1.033,   3.375e-4
1.034,   3.532e-4
1.035,   3.394e-4
1.036,   3.245e-4
1.037,   3.301e-4
1.038,   3.246e-4
1.039,   3.526e-4
1.040,   3.456e-4
1.041,   3.251e-4
1.042,   3.258e-4
1.043,   3.269e-4
1.044,   3.431e-4
1.045,   3.507e-4
1.046,   3.286e-4
1.047,   3.232e-4
1.048,   3.254e-4
1.049,   3.378e-4
1.050,   3.549e-4
1.051,   3.336e-4
1.052,   3.215e-4
1.053,   3.284e-4
1.054,   3.307e-4
1.055,   3.536e-4
1.056,   3.368e-4
1.057,   3.233e-4
1.058,   3.236e-4
1.059,   3.262e-4
1.060,   3.491e-4
1.061,   3.491e-4
1.062,   3.265e-4
1.063,   3.255e-4
1.064,   3.249e-4
1.065,   3.376e-4
1.066,   3.537e-4
1.067,   3.314e-4
1.068,   3.224e-4
1.069,   3.252e-4
1.070,   3.363e-4
1.071,   3.538e-4
1.072,   3.374e-4
1.073,   3.244e-4
1.074,   3.299e-4
1.075,   3.268e-4
1.076,   3.528e-4
1.077,   3.462e-4
1.078,   3.305e-4
1.079,   3.232e-4
1.080,   3.252e-4
1.081,   3.489e-4
1.082,   3.584e-4
1.083,   3.254e-4
1.084,   3.275e-4
1.085,   3.235e-4
1.086,   3.427e-4
1.087,   3.605e-4
1.088,   3.385e-4
1.089,   3.219e-4
1.090,   3.277e-4
1.091,   3.378e-4
1.092,   3.609e-4
1.093,   3.448e-4
1.094,   3.241e-4
1.095,   3.284e-4
1.096,   3.338e-4
1.097,   3.604e-4
1.098,   3.528e-4
1.099,   3.317e-4
1.100,   3.290e-4
1.101,   3.312e-4
1.102,   3.550e-4
1.103,   3.624e-4
1.104,   3.362e-4
1.105,   3.270e-4
1.106,   3.333e-4
1.107,   3.473e-4
1.108,   3.705e-4
1.109,   3.492e-4
1.110,   3.265e-4
1.111,   3.332e-4
1.112,   3.427e-4
1.113,   3.755e-4
1.114,   3.543e-4
1.115,   3.342e-4
1.116,   3.334e-4
1.117,   3.397e-4
1.118,   3.685e-4
1.119,   3.695e-4
1.120,   3.388e-4
1.121,   3.358e-4
1.122,   3.400e-4
1.123,   3.644e-4
1.124,   3.769e-4
1.125,   3.484e-4
1.126,   3.367e-4
1.127,   3.429e-4
1.128,   3.554e-4
1.129,   3.825e-4
1.130,   3.606e-4
1.131,   3.404e-4
1.132,   3.460e-4
1.133,   3.512e-4
1.134,   3.846e-4
1.135,   3.772e-4
1.136,   3.448e-4
1.137,   3.434e-4
1.138,   3.517e-4
1.139,   3.806e-4
1.140,   3.822e-4
1.141,   3.542e-4
1.142,   3.502e-4
1.143,   3.492e-4
1.144,   3.720e-4
1.145,   3.975e-4
1.146,   3.710e-4
1.147,   3.487e-4
1.148,   3.533e-4
1.149,   3.658e-4
1.150,   4.004e-4
1.151,   3.782e-4
1.152,   3.538e-4
1.153,   3.504e-4
1.154,   3.631e-4
1.155,   4.003e-4
1.156,   3.911e-4
1.157,   3.634e-4
1.158,   3.585e-4
1.159,   3.632e-4
1.160,   3.870e-4
1.161,   4.100e-4
1.162,   3.706e-4
1.163,   3.593e-4
1.164,   3.660e-4
1.165,   3.854e-4
1.166,   4.236e-4
1.167,   3.839e-4
1.168,   3.610e-4
1.169,   3.681e-4
1.170,   3.792e-4
1.171,   4.183e-4
1.172,   4.042e-4
1.173,   3.731e-4
1.174,   3.729e-4
1.175,   3.782e-4
1.176,   4.126e-4
1.177,   4.248e-4
1.178,   3.809e-4
1.179,   3.782e-4
1.180,   3.749e-4
1.181,   4.061e-4
1.182,   4.372e-4
1.183,   3.967e-4
1.184,   3.756e-4
1.185,   3.880e-4
1.186,   4.001e-4
1.187,   4.363e-4
1.188,   4.164e-4
1.189,   3.880e-4
1.190,   3.879e-4
1.191,   3.962e-4
1.192,   4.427e-4
1.193,   4.345e-4
1.194,   3.978e-4
1.195,   3.896e-4
1.196,   3.998e-4
1.197,   4.339e-4
1.198,   4.533e-4
1.199,   4.092e-4
1.200,   3.966e-4
1.201,   4.076e-4
1.202,   4.233e-4
1.203,   4.659e-4
1.204,   4.286e-4
1.205,   3.997e-4
1.206,   4.100e-4
1.207,   4.199e-4
1.208,   4.734e-4
1.209,   4.464e-4
1.210,   4.156e-4
1.211,   4.068e-4
1.212,   4.212e-4
1.213,   4.635e-4
1.214,   4.697e-4
1.215,   4.303e-4
1.216,   4.168e-4
1.217,   4.226e-4
1.218,   4.583e-4
1.219,   4.869e-4
1.220,   4.343e-4
1.221,   4.254e-4
1.222,   4.323e-4
1.223,   4.469e-4
1.224,   4.908e-4
1.225,   4.693e-4
1.226,   4.289e-4
1.227,   4.326e-4
1.228,   4.523e-4
1.229,   4.932e-4
1.230,   4.885e-4
1.231,   4.413e-4
1.232,   4.329e-4
1.233,   4.467e-4
1.234,   4.903e-4
1.235,   5.014e-4
1.236,   4.572e-4
1.237,   4.422e-4
1.238,   4.504e-4
1.239,   4.752e-4
1.240,   5.156e-4
1.241,   4.786e-4
1.242,   4.486e-4
1.243,   4.584e-4
1.244,   4.700e-4
1.245,   5.236e-4
1.246,   4.983e-4
1.247,   4.600e-4
1.248,   4.581e-4
1.249,   4.713e-4
1.250,   5.189e-4
1.251,   5.173e-4
1.252,   4.726e-4
1.253,   4.619e-4
1.254,   4.674e-4
1.255,   4.988e-4
1.256,   5.404e-4
1.257,   4.894e-4
1.258,   4.649e-4
1.259,   4.697e-4
1.260,   4.952e-4
1.261,   5.335e-4
1.262,   5.044e-4
1.263,   4.765e-4
1.264,   4.791e-4
1.265,   4.801e-4
1.266,   5.343e-4
1.267,   5.336e-4
1.268,   4.842e-4
1.269,   4.730e-4
1.270,   4.828e-4
1.271,   5.317e-4
1.272,   5.530e-4
1.273,   4.913e-4
1.274,   4.790e-4
1.275,   4.791e-4
1.276,   5.148e-4
1.277,   5.621e-4
1.278,   5.056e-4
1.279,   4.831e-4
1.280,   4.893e-4
1.281,   5.048e-4
1.282,   5.552e-4
1.283,   5.305e-4
1.284,   4.887e-4
1.285,   4.907e-4
1.286,   4.946e-4
1.287,   5.514e-4
1.288,   5.479e-4
1.289,   5.010e-4
1.290,   4.890e-4
1.291,   4.945e-4
1.292,   5.350e-4
1.293,   5.618e-4
1.294,   5.168e-4
1.295,   4.902e-4
1.296,   4.994e-4
1.297,   5.192e-4
1.298,   5.689e-4
1.299,   5.293e-4
1.300,   4.936e-4
1.301,   4.965e-4
1.302,   5.069e-4
1.303,   5.647e-4
1.304,   5.483e-4
1.305,   5.078e-4
1.306,   4.906e-4
1.307,   5.035e-4
1.308,   5.538e-4
1.309,   5.622e-4
1.310,   5.141e-4
1.311,   5.006e-4
1.312,   4.998e-4
1.313,   5.328e-4
1.314,   5.673e-4
1.315,   5.268e-4
1.316,   5.023e-4
1.317,   5.047e-4
1.318,   5.213e-4
1.319,   5.772e-4
1.320,   5.505e-4
1.321,   5.028e-4
1.322,   5.024e-4
1.323,   5.173e-4
1.324,   5.723e-4
1.325,   5.602e-4
1.326,   5.207e-4
1.327,   4.985e-4
1.328,   5.138e-4
1.329,   5.602e-4
1.330,   5.816e-4
1.331,   5.330e-4
1.332,   5.034e-4
1.333,   5.114e-4
1.334,   5.373e-4
1.335,   5.870e-4
1.336,   5.484e-4
1.337,   5.099e-4
1.338,   5.101e-4
1.339,   5.259e-4
1.340,   5.857e-4
1.341,   5.585e-4
1.342,   5.199e-4
1.343,   5.181e-4
1.344,   5.233e-4
1.345,   5.812e-4
1.346,   5.766e-4
1.347,   5.352e-4
1.348,   5.182e-4
1.349,   5.252e-4
1.350,   5.620e-4
1.351,   5.941e-4
1.352,   5.431e-4
1.353,   5.261e-4
1.354,   5.287e-4
1.355,   5.405e-4
1.356,   6.108e-4
1.357,   5.704e-4
1.358,   5.311e-4
1.359,   5.299e-4
1.360,   5.427e-4
1.361,   6.040e-4
1.362,   5.866e-4
1.363,   5.449e-4
1.364,   5.375e-4
1.365,   5.368e-4
1.366,   5.971e-4
1.367,   6.085e-4
1.368,   5.563e-4
1.369,   5.402e-4
1.370,   5.525e-4
1.371,   5.810e-4
1.372,   6.294e-4
1.373,   5.729e-4
1.374,   5.592e-4
1.375,   5.581e-4
1.376,   5.770e-4
1.377,   6.361e-4
1.378,   6.009e-4
1.379,   5.625e-4
1.380,   5.632e-4
1.381,   5.758e-4
1.382,   6.330e-4
1.383,   6.291e-4
1.384,   5.800e-4
1.385,   5.679e-4
1.386,   5.761e-4
1.387,   6.356e-4
1.388,   6.590e-4
1.389,   6.017e-4
1.390,   5.794e-4
1.391,   5.963e-4
1.392,   6.197e-4
1.393,   6.762e-4
1.394,   6.340e-4
1.395,   6.000e-4
1.396,   6.149e-4
1.397,   6.249e-4
1.398,   6.956e-4
1.399,   6.662e-4
1.400,   6.188e-4
1.401,   6.211e-4
1.402,   6.338e-4
1.403,   6.984e-4
1.404,   7.149e-4
1.405,   6.538e-4
1.406,   6.459e-4
1.407,   6.500e-4
1.408,   7.014e-4
1.409,   7.454e-4
1.410,   6.978e-4
1.411,   6.635e-4
1.412,   6.787e-4
1.413,   7.177e-4
1.414,   7.957e-4
1.415,   7.603e-4
1.416,   7.146e-4
1.417,   7.083e-4
1.418,   7.302e-4
1.419,   8.238e-4
1.420,   8.376e-4
1.421,   7.576e-4
1.422,   7.560e-4
1.423,   7.799e-4
1.424,   8.459e-4
1.425,   9.201e-4
1.426,   8.655e-4
1.427,   8.212e-4
1.428,   8.498e-4
1.429,   8.960e-4
1.430,   1.007e-3
1.431,   9.653e-4
1.432,   9.232e-4
1.433,   9.412e-4
1.434,   9.848e-4
1.435,   1.135e-3
1.436,   1.132e-3
1.437,   1.042e-3
1.438,   1.069e-3
1.439,   1.104e-3
1.440,   1.256e-3
1.441,   1.327e-3
1.442,   1.258e-3
1.443,   1.250e-3
1.444,   1.282e-3
1.445,   1.445e-3
1.446,   1.590e-3
1.447,   1.533e-3
1.448,   1.484e-3
1.449,   1.562e-3
1.450,   1.676e-3
1.451,   1.913e-3
1.452,   1.908e-3
1.453,   1.861e-3
1.454,   1.910e-3
1.455,   2.015e-3
1.456,   2.335e-3
1.457,   2.425e-3
1.458,   2.344e-3
1.459,   2.368e-3
1.460,   2.466e-3
1.461,   2.818e-3
1.462,   3.050e-3
1.463,   3.009e-3
1.464,   3.042e-3
1.465,   3.145e-3
1.466,   3.451e-3
1.467,   3.923e-3
1.468,   3.906e-3
1.469,   3.798e-3
1.470,   3.915e-3
1.471,   4.222e-3
1.472,   4.806e-3
1.473,   4.925e-3
1.474,   4.835e-3
1.475,   4.939e-3
1.476,   5.191e-3
1.477,   5.796e-3
1.478,   6.110e-3
1.479,   6.004e-3
1.480,   6.122e-3
1.481,   6.313e-3
1.482,   6.815e-3
1.483,   7.329e-3
1.484,   7.457e-3
1.485,   7.531e-3
1.486,   7.831e-3
1.487,   8.182e-3
1.488,   8.743e-3
1.489,   9.008e-3
1.490,   8.989e-3
1.491,   9.136e-3
1.492,   9.311e-3
1.493,   9.643e-3
1.494,   9.778e-3
1.495,   9.967e-3
1.496,   1.004e-2
1.497,   1.007e-2
1.498,   1.007e-2
1.499,   1.007e-2
1.500,   1.007e-2
1.501,   1.007e-2
1.502,   1.007e-2
1.503,   1.007e-2
1.504,   1.007e-2
1.505,   1.007e-2
1.506,   1.007e-2
1.507,   1.007e-2
1.508,   1.007e-2
1.509,   1.007e-2
1.510,   1.007e-2
1.511,   1.007e-2
1.512,   1.007e-2
1.513,   1.007e-2
1.514,   1.007e-2
1.515,   1.007e-2
1.516,   1.007e-2
1.517,   1.007e-2
1.518,   1.007e-2