File: Experimental Records and Raw Data/batch5/final500/B5_BEST_500_#1_Full(#9)-264mV.txt
June 8, 2023   21:06:57
Linear Sweep Voltammetry
File: d:\current work\al_oer\electrochemical test data\batch 5\500\B5_BEST_500_#1_Full(#9)-264mV.txt
Data Source:  Experiment
Instrument Model:  CHI660E
Header:
Note:

Init E (V) = 0.894

Final E (V) = 1.596

Scan Rate (V/s) = 0.010
Sample Interval (V) = 0.001
Quiet Time (sec) = 2
Sensitivity (A/V) = 0.001
Comp R (ohm) = 5.1

Results:

Channel 1:

Potential/V, Current/A
0.894,   4.858e-5
0.895,   5.176e-5
0.896,   5.183e-5
0.897,   5.216e-5
0.898,   5.165e-5
0.899,   5.133e-5
0.900,   5.125e-5
0.901,   5.069e-5
0.902,   5.027e-5
0.903,   4.998e-5
0.904,   4.997e-5
0.905,   4.957e-5
0.906,   4.921e-5
0.907,   4.887e-5
0.908,   4.849e-5
0.909,   4.821e-5
0.910,   4.798e-5
0.911,   4.785e-5
0.912,   4.778e-5
0.913,   4.731e-5
0.914,   4.668e-5
0.915,   4.653e-5
0.916,   4.622e-5
0.917,   4.595e-5
0.918,   4.592e-5
0.919,   4.562e-5
0.920,   4.530e-5
0.921,   4.508e-5
0.922,   4.485e-5
0.923,   4.443e-5
0.924,   4.439e-5
0.925,   4.425e-5
0.926,   4.402e-5
0.927,   4.370e-5
0.928,   4.353e-5
0.929,   4.336e-5
0.930,   4.300e-5
0.931,   4.299e-5
0.932,   4.291e-5
0.933,   4.258e-5
0.934,   4.239e-5
0.935,   4.217e-5
0.936,   4.191e-5
0.937,   4.175e-5
0.938,   4.181e-5
0.939,   4.144e-5
0.940,   4.133e-5
0.941,   4.113e-5
0.942,   4.095e-5
0.943,   4.076e-5
0.944,   4.059e-5
0.945,   4.050e-5
0.946,   4.058e-5
0.947,   4.027e-5
0.948,   4.010e-5
0.949,   3.983e-5
0.950,   3.968e-5
0.951,   3.944e-5
0.952,   3.945e-5
0.953,   3.942e-5
0.954,   3.921e-5
0.955,   3.904e-5
0.956,   3.908e-5
0.957,   3.878e-5
0.958,   3.849e-5
0.959,   3.867e-5
0.960,   3.850e-5
0.961,   3.841e-5
0.962,   3.817e-5
0.963,   3.805e-5
0.964,   3.795e-5
0.965,   3.788e-5
0.966,   3.796e-5
0.967,   3.777e-5
0.968,   3.759e-5
0.969,   3.747e-5
0.970,   3.758e-5
0.971,   3.721e-5
0.972,   3.731e-5
0.973,   3.726e-5
0.974,   3.706e-5
0.975,   3.697e-5
0.976,   3.681e-5
0.977,   3.671e-5
0.978,   3.653e-5
0.979,   3.667e-5
0.980,   3.642e-5
0.981,   3.653e-5
0.982,   3.626e-5
0.983,   3.617e-5
0.984,   3.606e-5
0.985,   3.604e-5
0.986,   3.627e-5
0.987,   3.584e-5
0.988,   3.591e-5
0.989,   3.578e-5
0.990,   3.568e-5
0.991,   3.560e-5
0.992,   3.551e-5
0.993,   3.569e-5
0.994,   3.544e-5
0.995,   3.541e-5
0.996,   3.534e-5
0.997,   3.518e-5
0.998,   3.511e-5
0.999,   3.511e-5
1.000,   3.521e-5
1.001,   3.511e-5
1.002,   3.496e-5
1.003,   3.502e-5
1.004,   3.484e-5
1.005,   3.475e-5
1.006,   3.471e-5
1.007,   3.469e-5
1.008,   3.463e-5
1.009,   3.457e-5
1.010,   3.442e-5
1.011,   3.439e-5
1.012,   3.444e-5
1.013,   3.423e-5
1.014,   3.433e-5
1.015,   3.439e-5
1.016,   3.407e-5
1.017,   3.410e-5
1.018,   3.411e-5
1.019,   3.399e-5
1.020,   3.411e-5
1.021,   3.406e-5
1.022,   3.399e-5
1.023,   3.390e-5
1.024,   3.379e-5
1.025,   3.381e-5
1.026,   3.368e-5
1.027,   3.381e-5
1.028,   3.375e-5
1.029,   3.368e-5
1.030,   3.363e-5
1.031,   3.371e-5
1.032,   3.332e-5
1.033,   3.350e-5
1.034,   3.360e-5
1.035,   3.348e-5
1.036,   3.344e-5
1.037,   3.344e-5
1.038,   3.336e-5
1.039,   3.326e-5
1.040,   3.332e-5
1.041,   3.348e-5
1.042,   3.326e-5
1.043,   3.327e-5
1.044,   3.326e-5
1.045,   3.317e-5
1.046,   3.317e-5
1.047,   3.316e-5
1.048,   3.323e-5
1.049,   3.317e-5
1.050,   3.314e-5
1.051,   3.306e-5
1.052,   3.306e-5
1.053,   3.302e-5
1.054,   3.299e-5
1.055,   3.310e-5
1.056,   3.305e-5
1.057,   3.302e-5
1.058,   3.295e-5
1.059,   3.292e-5
1.060,   3.290e-5
1.061,   3.299e-5
1.062,   3.300e-5
1.063,   3.316e-5
1.064,   3.290e-5
1.065,   3.293e-5
1.066,   3.277e-5
1.067,   3.267e-5
1.068,   3.301e-5
1.069,   3.299e-5
1.070,   3.293e-5
1.071,   3.285e-5
1.072,   3.287e-5
1.073,   3.286e-5
1.074,   3.296e-5
1.075,   3.289e-5
1.076,   3.293e-5
1.077,   3.283e-5
1.078,   3.289e-5
1.079,   3.284e-5
1.080,   3.286e-5
1.081,   3.276e-5
1.082,   3.299e-5
1.083,   3.296e-5
1.084,   3.303e-5
1.085,   3.277e-5
1.086,   3.290e-5
1.087,   3.296e-5
1.088,   3.284e-5
1.089,   3.309e-5
1.090,   3.299e-5
1.091,   3.301e-5
1.092,   3.307e-5
1.093,   3.294e-5
1.094,   3.292e-5
1.095,   3.311e-5
1.096,   3.314e-5
1.097,   3.315e-5
1.098,   3.309e-5
1.099,   3.315e-5
1.100,   3.308e-5
1.101,   3.324e-5
1.102,   3.330e-5
1.103,   3.325e-5
1.104,   3.323e-5
1.105,   3.329e-5
1.106,   3.318e-5
1.107,   3.304e-5
1.108,   3.316e-5
1.109,   3.342e-5
1.110,   3.355e-5
1.111,   3.324e-5
1.112,   3.338e-5
1.113,   3.351e-5
1.114,   3.330e-5
1.115,   3.335e-5
1.116,   3.365e-5
1.117,   3.361e-5
1.118,   3.380e-5
1.119,   3.346e-5
1.120,   3.363e-5
1.121,   3.366e-5
1.122,   3.379e-5
1.123,   3.390e-5
1.124,   3.376e-5
1.125,   3.375e-5
1.126,   3.407e-5
1.127,   3.378e-5
1.128,   3.384e-5
1.129,   3.404e-5
1.130,   3.437e-5
1.131,   3.401e-5
1.132,   3.411e-5
1.133,   3.420e-5
1.134,   3.420e-5
1.135,   3.413e-5
1.136,   3.453e-5
1.137,   3.435e-5
1.138,   3.444e-5
1.139,   3.474e-5
1.140,   3.453e-5
1.141,   3.447e-5
1.142,   3.451e-5
1.143,   3.477e-5
1.144,   3.480e-5
1.145,   3.487e-5
1.146,   3.485e-5
1.147,   3.479e-5
1.148,   3.490e-5
1.149,   3.485e-5
1.150,   3.516e-5
1.151,   3.515e-5
1.152,   3.515e-5
1.153,   3.520e-5
1.154,   3.513e-5
1.155,   3.522e-5
1.156,   3.532e-5
1.157,   3.549e-5
1.158,   3.548e-5
1.159,   3.551e-5
1.160,   3.549e-5
1.161,   3.556e-5
1.162,   3.557e-5
1.163,   3.572e-5
1.164,   3.594e-5
1.165,   3.592e-5
1.166,   3.594e-5
1.167,   3.596e-5
1.168,   3.598e-5
1.169,   3.600e-5
1.170,   3.612e-5
1.171,   3.635e-5
1.172,   3.619e-5
1.173,   3.616e-5
1.174,   3.637e-5
1.175,   3.634e-5
1.176,   3.635e-5
1.177,   3.686e-5
1.178,   3.680e-5
1.179,   3.668e-5
1.180,   3.678e-5
1.181,   3.678e-5
1.182,   3.682e-5
1.183,   3.680e-5
1.184,   3.715e-5
1.185,   3.721e-5
1.186,   3.713e-5
1.187,   3.694e-5
1.188,   3.722e-5
1.189,   3.728e-5
1.190,   3.732e-5
1.191,   3.766e-5
1.192,   3.763e-5
1.193,   3.774e-5
1.194,   3.774e-5
1.195,   3.775e-5
1.196,   3.782e-5
1.197,   3.796e-5
1.198,   3.818e-5
1.199,   3.823e-5
1.200,   3.820e-5
1.201,   3.831e-5
1.202,   3.826e-5
1.203,   3.864e-5
1.204,   3.860e-5
1.205,   3.871e-5
1.206,   3.861e-5
1.207,   3.887e-5
1.208,   3.892e-5
1.209,   3.900e-5
1.210,   3.907e-5
1.211,   3.914e-5
1.212,   3.949e-5
1.213,   3.942e-5
1.214,   3.954e-5
1.215,   3.952e-5
1.216,   3.964e-5
1.217,   3.967e-5
1.218,   3.987e-5
1.219,   4.028e-5
1.220,   4.023e-5
1.221,   4.018e-5
1.222,   4.038e-5
1.223,   4.056e-5
1.224,   4.035e-5
1.225,   4.075e-5
1.226,   4.078e-5
1.227,   4.081e-5
1.228,   4.094e-5
1.229,   4.097e-5
1.230,   4.108e-5
1.231,   4.111e-5
1.232,   4.146e-5
1.233,   4.163e-5
1.234,   4.163e-5
1.235,   4.170e-5
1.236,   4.181e-5
1.237,   4.180e-5
1.238,   4.196e-5
1.239,   4.236e-5
1.240,   4.228e-5
1.241,   4.222e-5
1.242,   4.251e-5
1.243,   4.254e-5
1.244,   4.269e-5
1.245,   4.284e-5
1.246,   4.325e-5
1.247,   4.319e-5
1.248,   4.338e-5
1.249,   4.349e-5
1.250,   4.361e-5
1.251,   4.347e-5
1.252,   4.391e-5
1.253,   4.414e-5
1.254,   4.422e-5
1.255,   4.426e-5
1.256,   4.458e-5
1.257,   4.439e-5
1.258,   4.467e-5
1.259,   4.463e-5
1.260,   4.532e-5
1.261,   4.508e-5
1.262,   4.542e-5
1.263,   4.528e-5
1.264,   4.537e-5
1.265,   4.551e-5
1.266,   4.599e-5
1.267,   4.623e-5
1.268,   4.626e-5
1.269,   4.631e-5
1.270,   4.644e-5
1.271,   4.659e-5
1.272,   4.650e-5
1.273,   4.718e-5
1.274,   4.751e-5
1.275,   4.718e-5
1.276,   4.746e-5
1.277,   4.744e-5
1.278,   4.764e-5
1.279,   4.782e-5
1.280,   4.821e-5
1.281,   4.837e-5
1.282,   4.837e-5
1.283,   4.878e-5
1.284,   4.840e-5
1.285,   4.865e-5
1.286,   4.916e-5
1.287,   4.959e-5
1.288,   4.929e-5
1.289,   4.972e-5
1.290,   4.983e-5
1.291,   4.988e-5
1.292,   5.005e-5
1.293,   5.038e-5
1.294,   5.072e-5
1.295,   5.076e-5
1.296,   5.095e-5
1.297,   5.110e-5
1.298,   5.125e-5
1.299,   5.121e-5
1.300,   5.190e-5
1.301,   5.180e-5
1.302,   5.211e-5
1.303,   5.222e-5
1.304,   5.230e-5
1.305,   5.267e-5
1.306,   5.268e-5
1.307,   5.314e-5
1.308,   5.349e-5
1.309,   5.343e-5
1.310,   5.383e-5
1.311,   5.347e-5
1.312,   5.388e-5
1.313,   5.408e-5
1.314,   5.473e-5
1.315,   5.460e-5
1.316,   5.488e-5
1.317,   5.530e-5
1.318,   5.516e-5
1.319,   5.536e-5
1.320,   5.550e-5
1.321,   5.621e-5
1.322,   5.623e-5
1.323,   5.636e-5
1.324,   5.656e-5
1.325,   5.668e-5
1.326,   5.700e-5
1.327,   5.710e-5
1.328,   5.780e-5
1.329,   5.786e-5
1.330,   5.791e-5
1.331,   5.821e-5
1.332,   5.835e-5
1.333,   5.811e-5
1.334,   5.896e-5
1.335,   5.967e-5
1.336,   5.967e-5
1.337,   5.995e-5
1.338,   6.015e-5
1.339,   6.043e-5
1.340,   6.044e-5
1.341,   6.104e-5
1.342,   6.159e-5
1.343,   6.161e-5
1.344,   6.187e-5
1.345,   6.222e-5
1.346,   6.236e-5
1.347,   6.264e-5
1.348,   6.339e-5
1.349,   6.392e-5
1.350,   6.360e-5
1.351,   6.415e-5
1.352,   6.429e-5
1.353,   6.498e-5
1.354,   6.497e-5
1.355,   6.581e-5
1.356,   6.653e-5
1.357,   6.623e-5
1.358,   6.654e-5
1.359,   6.697e-5
1.360,   6.740e-5
1.361,   6.805e-5
1.362,   6.864e-5
1.363,   6.884e-5
1.364,   6.923e-5
1.365,   6.949e-5
1.366,   7.029e-5
1.367,   7.045e-5
1.368,   7.068e-5
1.369,   7.184e-5
1.370,   7.205e-5
1.371,   7.241e-5
1.372,   7.287e-5
1.373,   7.326e-5
1.374,   7.394e-5
1.375,   7.444e-5
1.376,   7.552e-5
1.377,   7.566e-5
1.378,   7.607e-5
1.379,   7.667e-5
1.380,   7.713e-5
1.381,   7.761e-5
1.382,   7.868e-5
1.383,   7.960e-5
1.384,   7.987e-5
1.385,   8.054e-5
1.386,   8.113e-5
1.387,   8.152e-5
1.388,   8.245e-5
1.389,   8.371e-5
1.390,   8.421e-5
1.391,   8.470e-5
1.392,   8.561e-5
1.393,   8.633e-5
1.394,   8.713e-5
1.395,   8.801e-5
1.396,   8.970e-5
1.397,   9.049e-5
1.398,   9.149e-5
1.399,   9.233e-5
1.400,   9.319e-5
1.401,   9.407e-5
1.402,   9.523e-5
1.403,   9.709e-5
1.404,   9.843e-5
1.405,   9.899e-5
1.406,   1.004e-4
1.407,   1.017e-4
1.408,   1.031e-4
1.409,   1.053e-4
1.410,   1.071e-4
1.411,   1.085e-4
1.412,   1.104e-4
1.413,   1.120e-4
1.414,   1.137e-4
1.415,   1.156e-4
1.416,   1.177e-4
1.417,   1.208e-4
1.418,   1.228e-4
1.419,   1.243e-4
1.420,   1.267e-4
1.421,   1.297e-4
1.422,   1.325e-4
1.423,   1.355e-4
1.424,   1.394e-4
1.425,   1.421e-4
1.426,   1.455e-4
1.427,   1.489e-4
1.428,   1.527e-4
1.429,   1.563e-4
1.430,   1.615e-4
1.431,   1.668e-4
1.432,   1.707e-4
1.433,   1.758e-4
1.434,   1.811e-4
1.435,   1.864e-4
1.436,   1.922e-4
1.437,   1.999e-4
1.438,   2.065e-4
1.439,   2.128e-4
1.440,   2.208e-4
1.441,   2.280e-4
1.442,   2.359e-4
1.443,   2.450e-4
1.444,   2.560e-4
1.445,   2.651e-4
1.446,   2.748e-4
1.447,   2.854e-4
1.448,   2.958e-4
1.449,   3.081e-4
1.450,   3.219e-4
1.451,   3.380e-4
1.452,   3.494e-4
1.453,   3.642e-4
1.454,   3.785e-4
1.455,   3.931e-4
1.456,   4.103e-4
1.457,   4.284e-4
1.458,   4.497e-4
1.459,   4.675e-4
1.460,   4.881e-4
1.461,   5.080e-4
1.462,   5.289e-4
1.463,   5.508e-4
1.464,   5.765e-4
1.465,   6.052e-4
1.466,   6.289e-4
1.467,   6.558e-4
1.468,   6.830e-4
1.469,   7.106e-4
1.470,   7.395e-4
1.471,   7.749e-4
1.472,   8.119e-4
1.473,   8.436e-4
1.474,   8.795e-4
1.475,   9.149e-4
1.476,   9.518e-4
1.477,   9.903e-4
1.478,   1.038e-3
1.479,   1.085e-3
1.480,   1.126e-3
1.481,   1.172e-3
1.482,   1.216e-3
1.483,   1.263e-3
1.484,   1.310e-3
1.485,   1.372e-3
1.486,   1.429e-3
1.487,   1.480e-3
1.488,   1.537e-3
1.489,   1.591e-3
1.490,   1.642e-3
1.491,   1.698e-3
1.492,   1.781e-3
1.493,   1.848e-3
1.494,   1.916e-3
1.495,   1.980e-3
1.496,   2.040e-3
1.497,   2.106e-3
1.498,   2.182e-3
1.499,   2.278e-3
1.500,   2.354e-3
1.501,   2.434e-3
1.502,   2.505e-3
1.503,   2.569e-3
1.504,   2.649e-3
1.505,   2.738e-3
1.506,   2.845e-3
1.507,   2.924e-3
1.508,   3.009e-3
1.509,   3.083e-3
1.510,   3.154e-3
1.511,   3.238e-3
1.512,   3.337e-3
1.513,   3.459e-3
1.514,   3.552e-3
1.515,   3.640e-3
1.516,   3.714e-3
1.517,   3.780e-3
1.518,   3.860e-3
1.519,   3.980e-3
1.520,   4.101e-3
1.521,   4.184e-3
1.522,   4.277e-3
1.523,   4.357e-3
1.524,   4.426e-3
1.525,   4.502e-3
1.526,   4.637e-3
1.527,   4.797e-3
1.528,   4.906e-3
1.529,   5.002e-3
1.530,   5.073e-3
1.531,   5.155e-3
1.532,   5.230e-3
1.533,   5.392e-3
1.534,   5.539e-3
1.535,   5.618e-3
1.536,   5.694e-3
1.537,   5.776e-3
1.538,   5.891e-3
1.539,   6.026e-3
1.540,   6.147e-3
1.541,   6.271e-3
1.542,   6.357e-3
1.543,   6.454e-3
1.544,   6.485e-3
1.545,   6.558e-3
1.546,   6.691e-3
1.547,   6.923e-3
1.548,   7.051e-3
1.549,   7.128e-3
1.550,   7.222e-3
1.551,   7.289e-3
1.552,   7.335e-3
1.553,   7.464e-3
1.554,   7.727e-3
1.555,   7.921e-3
1.556,   8.044e-3
1.557,   8.103e-3
1.558,   8.161e-3
1.559,   8.207e-3
1.560,   8.353e-3
1.561,   8.598e-3
1.562,   8.732e-3
1.563,   8.818e-3
1.564,   8.835e-3
1.565,   8.830e-3
1.566,   8.860e-3
1.567,   9.002e-3
1.568,   9.199e-3
1.569,   9.295e-3
1.570,   9.342e-3
1.571,   9.331e-3
1.572,   9.380e-3
1.573,   9.406e-3
1.574,   9.542e-3
1.575,   9.667e-3
1.576,   9.676e-3
1.577,   9.708e-3
1.578,   9.706e-3
1.579,   9.703e-3
1.580,   9.681e-3
1.581,   9.925e-3
1.582,   9.983e-3
1.583,   1.000e-2
1.584,   1.004e-2
1.585,   1.005e-2
1.586,   1.006e-2
1.587,   1.005e-2
1.588,   1.007e-2
1.589,   1.007e-2
1.590,   1.007e-2
1.591,   1.007e-2
1.592,   1.007e-2
1.593,   1.007e-2
1.594,   1.007e-2
1.595,   1.007e-2
1.596,   1.007e-2