File: Experimental Records and Raw Data/batch5/final500/B5_BEST_500_#1_Full(#15)-193mV.txt
June 9, 2023   12:49:15
Linear Sweep Voltammetry
File: d:\current work\al_oer\electrochemical test data\batch 5\500\B5_BEST_500_#1_Full(#15)-193mV.txt
Data Source:  Experiment
Instrument Model:  CHI660E
Header:
Note:

Init E (V) = 0.897

Final E (V) = 1.501

Scan Rate (V/s) = 0.010
Sample Interval (V) = 0.001
Quiet Time (sec) = 2
Sensitivity (A/V) = 0.001
Comp R (ohm) = 4.5

Results:

Channel 1:

Potential/V, Current/A
0.897,   7.354e-4
0.898,   8.746e-4
0.899,   9.504e-4
0.900,   9.266e-4
0.901,   8.559e-4
0.902,   8.926e-4
0.903,   9.486e-4
0.904,   8.424e-4
0.905,   8.544e-4
0.906,   9.243e-4
0.907,   8.498e-4
0.908,   8.234e-4
0.909,   8.667e-4
0.910,   8.818e-4
0.911,   8.026e-4
0.912,   8.144e-4
0.913,   8.958e-4
0.914,   8.042e-4
0.915,   7.745e-4
0.916,   8.491e-4
0.917,   8.223e-4
0.918,   7.462e-4
0.919,   7.908e-4
0.920,   8.530e-4
0.921,   7.452e-4
0.922,   7.534e-4
0.923,   8.380e-4
0.924,   7.722e-4
0.925,   7.246e-4
0.926,   7.746e-4
0.927,   7.912e-4
0.928,   7.163e-4
0.929,   7.471e-4
0.930,   8.061e-4
0.931,   7.231e-4
0.932,   7.178e-4
0.933,   7.779e-4
0.934,   7.479e-4
0.935,   6.973e-4
0.936,   7.299e-4
0.937,   7.816e-4
0.938,   6.858e-4
0.939,   6.959e-4
0.940,   7.766e-4
0.941,   7.058e-4
0.942,   6.822e-4
0.943,   7.239e-4
0.944,   7.427e-4
0.945,   6.664e-4
0.946,   6.875e-4
0.947,   7.563e-4
0.948,   6.758e-4
0.949,   6.641e-4
0.950,   7.360e-4
0.951,   6.964e-4
0.952,   6.485e-4
0.953,   6.884e-4
0.954,   7.292e-4
0.955,   6.480e-4
0.956,   6.573e-4
0.957,   7.251e-4
0.958,   6.563e-4
0.959,   6.474e-4
0.960,   6.899e-4
0.961,   6.975e-4
0.962,   6.277e-4
0.963,   6.596e-4
0.964,   7.156e-4
0.965,   6.328e-4
0.966,   6.416e-4
0.967,   6.953e-4
0.968,   6.517e-4
0.969,   6.301e-4
0.970,   6.588e-4
0.971,   6.864e-4
0.972,   6.192e-4
0.973,   6.419e-4
0.974,   6.900e-4
0.975,   6.225e-4
0.976,   6.265e-4
0.977,   6.716e-4
0.978,   6.705e-4
0.979,   6.081e-4
0.980,   6.343e-4
0.981,   6.872e-4
0.982,   6.104e-4
0.983,   6.160e-4
0.984,   6.718e-4
0.985,   6.430e-4
0.986,   6.014e-4
0.987,   6.372e-4
0.988,   6.712e-4
0.989,   5.946e-4
0.990,   6.069e-4
0.991,   6.789e-4
0.992,   6.101e-4
0.993,   5.972e-4
0.994,   6.414e-4
0.995,   6.456e-4
0.996,   5.975e-4
0.997,   6.184e-4
0.998,   6.670e-4
0.999,   5.924e-4
1.000,   5.986e-4
1.001,   6.556e-4
1.002,   6.141e-4
1.003,   5.943e-4
1.004,   6.246e-4
1.005,   6.551e-4
1.006,   5.822e-4
1.007,   5.947e-4
1.008,   6.582e-4
1.009,   5.955e-4
1.010,   5.803e-4
1.011,   6.240e-4
1.012,   6.322e-4
1.013,   5.813e-4
1.014,   5.973e-4
1.015,   6.490e-4
1.016,   5.826e-4
1.017,   5.907e-4
1.018,   6.330e-4
1.019,   6.044e-4
1.020,   5.825e-4
1.021,   6.113e-4
1.022,   6.392e-4
1.023,   5.757e-4
1.024,   5.833e-4
1.025,   6.396e-4
1.026,   5.827e-4
1.027,   5.841e-4
1.028,   6.156e-4
1.029,   6.134e-4
1.030,   5.775e-4
1.031,   5.979e-4
1.032,   6.335e-4
1.033,   5.739e-4
1.034,   5.811e-4
1.035,   6.269e-4
1.036,   6.014e-4
1.037,   5.690e-4
1.038,   5.986e-4
1.039,   6.297e-4
1.040,   5.709e-4
1.041,   5.829e-4
1.042,   6.297e-4
1.043,   5.805e-4
1.044,   5.764e-4
1.045,   6.141e-4
1.046,   6.198e-4
1.047,   5.675e-4
1.048,   5.857e-4
1.049,   6.442e-4
1.050,   5.686e-4
1.051,   5.665e-4
1.052,   6.318e-4
1.053,   5.977e-4
1.054,   5.607e-4
1.055,   5.977e-4
1.056,   6.267e-4
1.057,   5.605e-4
1.058,   5.734e-4
1.059,   6.372e-4
1.060,   5.764e-4
1.061,   5.648e-4
1.062,   6.200e-4
1.063,   6.123e-4
1.064,   5.563e-4
1.065,   5.890e-4
1.066,   6.317e-4
1.067,   5.687e-4
1.068,   5.717e-4
1.069,   6.312e-4
1.070,   5.898e-4
1.071,   5.625e-4
1.072,   6.011e-4
1.073,   6.271e-4
1.074,   5.661e-4
1.075,   5.755e-4
1.076,   6.383e-4
1.077,   5.807e-4
1.078,   5.624e-4
1.079,   6.207e-4
1.080,   6.180e-4
1.081,   5.605e-4
1.082,   5.919e-4
1.083,   6.448e-4
1.084,   5.646e-4
1.085,   5.817e-4
1.086,   6.255e-4
1.087,   5.857e-4
1.088,   5.742e-4
1.089,   6.090e-4
1.090,   6.264e-4
1.091,   5.723e-4
1.092,   5.826e-4
1.093,   6.321e-4
1.094,   5.849e-4
1.095,   5.785e-4
1.096,   6.256e-4
1.097,   6.110e-4
1.098,   5.731e-4
1.099,   5.978e-4
1.100,   6.279e-4
1.101,   5.860e-4
1.102,   5.915e-4
1.103,   6.314e-4
1.104,   6.102e-4
1.105,   5.855e-4
1.106,   6.105e-4
1.107,   6.266e-4
1.108,   5.885e-4
1.109,   5.972e-4
1.110,   6.496e-4
1.111,   5.997e-4
1.112,   5.881e-4
1.113,   6.306e-4
1.114,   6.226e-4
1.115,   5.906e-4
1.116,   6.109e-4
1.117,   6.499e-4
1.118,   5.924e-4
1.119,   5.991e-4
1.120,   6.417e-4
1.121,   6.132e-4
1.122,   5.966e-4
1.123,   6.250e-4
1.124,   6.563e-4
1.125,   5.909e-4
1.126,   6.047e-4
1.127,   6.592e-4
1.128,   6.103e-4
1.129,   5.991e-4
1.130,   6.317e-4
1.131,   6.440e-4
1.132,   6.087e-4
1.133,   6.109e-4
1.134,   6.480e-4
1.135,   6.234e-4
1.136,   6.136e-4
1.137,   6.588e-4
1.138,   6.364e-4
1.139,   6.090e-4
1.140,   6.253e-4
1.141,   6.696e-4
1.142,   6.102e-4
1.143,   6.202e-4
1.144,   6.742e-4
1.145,   6.274e-4
1.146,   6.118e-4
1.147,   6.554e-4
1.148,   6.645e-4
1.149,   6.106e-4
1.150,   6.309e-4
1.151,   7.001e-4
1.152,   6.158e-4
1.153,   6.213e-4
1.154,   6.732e-4
1.155,   6.558e-4
1.156,   6.183e-4
1.157,   6.498e-4
1.158,   6.904e-4
1.159,   6.200e-4
1.160,   6.386e-4
1.161,   6.911e-4
1.162,   6.400e-4
1.163,   6.364e-4
1.164,   6.719e-4
1.165,   6.778e-4
1.166,   6.323e-4
1.167,   6.492e-4
1.168,   7.100e-4
1.169,   6.402e-4
1.170,   6.434e-4
1.171,   6.968e-4
1.172,   6.774e-4
1.173,   6.306e-4
1.174,   6.651e-4
1.175,   7.112e-4
1.176,   6.522e-4
1.177,   6.461e-4
1.178,   7.105e-4
1.179,   6.742e-4
1.180,   6.508e-4
1.181,   6.918e-4
1.182,   7.140e-4
1.183,   6.504e-4
1.184,   6.704e-4
1.185,   7.278e-4
1.186,   6.685e-4
1.187,   6.578e-4
1.188,   7.279e-4
1.189,   7.008e-4
1.190,   6.569e-4
1.191,   6.954e-4
1.192,   7.417e-4
1.193,   6.657e-4
1.194,   6.761e-4
1.195,   7.570e-4
1.196,   6.937e-4
1.197,   6.585e-4
1.198,   7.313e-4
1.199,   7.500e-4
1.200,   6.559e-4
1.201,   6.956e-4
1.202,   7.674e-4
1.203,   6.885e-4
1.204,   6.832e-4
1.205,   7.589e-4
1.206,   7.309e-4
1.207,   6.777e-4
1.208,   7.244e-4
1.209,   7.680e-4
1.210,   6.935e-4
1.211,   6.932e-4
1.212,   7.546e-4
1.213,   7.191e-4
1.214,   7.229e-4
1.215,   7.328e-4
1.216,   7.428e-4
1.217,   7.339e-4
1.218,   7.220e-4
1.219,   7.880e-4
1.220,   7.332e-4
1.221,   7.209e-4
1.222,   7.634e-4
1.223,   7.582e-4
1.224,   7.410e-4
1.225,   7.423e-4
1.226,   8.216e-4
1.227,   7.359e-4
1.228,   7.229e-4
1.229,   8.215e-4
1.230,   7.636e-4
1.231,   7.332e-4
1.232,   7.777e-4
1.233,   7.813e-4
1.234,   7.709e-4
1.235,   7.456e-4
1.236,   8.171e-4
1.237,   7.740e-4
1.238,   7.534e-4
1.239,   8.082e-4
1.240,   7.840e-4
1.241,   7.917e-4
1.242,   7.840e-4
1.243,   8.005e-4
1.244,   7.907e-4
1.245,   7.798e-4
1.246,   8.306e-4
1.247,   7.917e-4
1.248,   8.058e-4
1.249,   8.045e-4
1.250,   8.026e-4
1.251,   8.150e-4
1.252,   7.961e-4
1.253,   8.654e-4
1.254,   8.032e-4
1.255,   7.750e-4
1.256,   8.580e-4
1.257,   8.586e-4
1.258,   7.796e-4
1.259,   8.211e-4
1.260,   9.057e-4
1.261,   7.766e-4
1.262,   8.009e-4
1.263,   8.986e-4
1.264,   8.430e-4
1.265,   7.939e-4
1.266,   8.672e-4
1.267,   8.991e-4
1.268,   7.962e-4
1.269,   8.206e-4
1.270,   8.939e-4
1.271,   8.394e-4
1.272,   8.302e-4
1.273,   8.866e-4
1.274,   8.685e-4
1.275,   8.425e-4
1.276,   8.629e-4
1.277,   8.969e-4
1.278,   8.540e-4
1.279,   8.510e-4
1.280,   8.978e-4
1.281,   8.618e-4
1.282,   8.638e-4
1.283,   8.830e-4
1.284,   9.005e-4
1.285,   8.748e-4
1.286,   8.803e-4
1.287,   9.563e-4
1.288,   8.540e-4
1.289,   8.255e-4
1.290,   9.541e-4
1.291,   9.112e-4
1.292,   8.196e-4
1.293,   9.017e-4
1.294,   9.727e-4
1.295,   8.521e-4
1.296,   8.508e-4
1.297,   9.966e-4
1.298,   8.987e-4
1.299,   8.303e-4
1.300,   9.591e-4
1.301,   9.519e-4
1.302,   8.382e-4
1.303,   8.909e-4
1.304,   1.034e-3
1.305,   8.733e-4
1.306,   8.362e-4
1.307,   1.003e-3
1.308,   9.337e-4
1.309,   8.401e-4
1.310,   9.369e-4
1.311,   9.968e-4
1.312,   8.674e-4
1.313,   8.862e-4
1.314,   1.006e-3
1.315,   9.224e-4
1.316,   8.687e-4
1.317,   9.764e-4
1.318,   9.671e-4
1.319,   8.811e-4
1.320,   9.212e-4
1.321,   9.865e-4
1.322,   9.224e-4
1.323,   8.994e-4
1.324,   1.027e-3
1.325,   9.546e-4
1.326,   8.651e-4
1.327,   9.749e-4
1.328,   1.021e-3
1.329,   8.940e-4
1.330,   9.098e-4
1.331,   1.033e-3
1.332,   9.284e-4
1.333,   9.050e-4
1.334,   1.003e-3
1.335,   9.884e-4
1.336,   9.107e-4
1.337,   9.583e-4
1.338,   1.046e-3
1.339,   9.307e-4
1.340,   9.214e-4
1.341,   1.043e-3
1.342,   9.813e-4
1.343,   9.189e-4
1.344,   9.908e-4
1.345,   1.023e-3
1.346,   9.489e-4
1.347,   9.578e-4
1.348,   1.054e-3
1.349,   9.656e-4
1.350,   9.591e-4
1.351,   1.027e-3
1.352,   1.005e-3
1.353,   9.815e-4
1.354,   1.001e-3
1.355,   1.058e-3
1.356,   9.779e-4
1.357,   9.855e-4
1.358,   1.050e-3
1.359,   1.012e-3
1.360,   9.910e-4
1.361,   1.046e-3
1.362,   1.051e-3
1.363,   9.936e-4
1.364,   1.012e-3
1.365,   1.100e-3
1.366,   1.015e-3
1.367,   1.034e-3
1.368,   1.073e-3
1.369,   1.059e-3
1.370,   1.055e-3
1.371,   1.051e-3
1.372,   1.126e-3
1.373,   1.047e-3
1.374,   1.080e-3
1.375,   1.109e-3
1.376,   1.074e-3
1.377,   1.126e-3
1.378,   1.104e-3
1.379,   1.134e-3
1.380,   1.095e-3
1.381,   1.122e-3
1.382,   1.159e-3
1.383,   1.131e-3
1.384,   1.138e-3
1.385,   1.202e-3
1.386,   1.168e-3
1.387,   1.138e-3
1.388,   1.182e-3
1.389,   1.264e-3
1.390,   1.172e-3
1.391,   1.184e-3
1.392,   1.305e-3
1.393,   1.234e-3
1.394,   1.209e-3
1.395,   1.301e-3
1.396,   1.318e-3
1.397,   1.246e-3
1.398,   1.283e-3
1.399,   1.396e-3
1.400,   1.293e-3
1.401,   1.302e-3
1.402,   1.423e-3
1.403,   1.407e-3
1.404,   1.360e-3
1.405,   1.418e-3
1.406,   1.536e-3
1.407,   1.415e-3
1.408,   1.438e-3
1.409,   1.617e-3
1.410,   1.515e-3
1.411,   1.502e-3
1.412,   1.646e-3
1.413,   1.665e-3
1.414,   1.591e-3
1.415,   1.661e-3
1.416,   1.819e-3
1.417,   1.715e-3
1.418,   1.694e-3
1.419,   1.910e-3
1.420,   1.943e-3
1.421,   1.792e-3
1.422,   1.948e-3
1.423,   2.086e-3
1.424,   1.952e-3
1.425,   2.080e-3
1.426,   2.226e-3
1.427,   2.184e-3
1.428,   2.228e-3
1.429,   2.375e-3
1.430,   2.448e-3
1.431,   2.470e-3
1.432,   2.561e-3
1.433,   2.707e-3
1.434,   2.675e-3
1.435,   2.856e-3
1.436,   2.984e-3
1.437,   2.983e-3
1.438,   3.210e-3
1.439,   3.278e-3
1.440,   3.381e-3
1.441,   3.531e-3
1.442,   3.672e-3
1.443,   3.903e-3
1.444,   3.915e-3
1.445,   4.224e-3
1.446,   4.399e-3
1.447,   4.431e-3
1.448,   4.737e-3
1.449,   4.946e-3
1.450,   5.081e-3
1.451,   5.269e-3
1.452,   5.606e-3
1.453,   5.878e-3
1.454,   5.867e-3
1.455,   6.428e-3
1.456,   6.609e-3
1.457,   6.849e-3
1.458,   7.183e-3
1.459,   7.503e-3
1.460,   7.756e-3
1.461,   7.885e-3
1.462,   8.372e-3
1.463,   8.626e-3
1.464,   8.774e-3
1.465,   9.327e-3
1.466,   9.562e-3
1.467,   9.553e-3
1.468,   9.743e-3
1.469,   9.921e-3
1.470,   9.997e-3
1.471,   1.007e-2
1.472,   1.007e-2
1.473,   1.007e-2
1.474,   1.007e-2
1.475,   1.007e-2
1.476,   1.007e-2
1.477,   1.007e-2
1.478,   1.007e-2
1.479,   1.007e-2
1.480,   1.007e-2
1.481,   1.007e-2
1.482,   1.007e-2
1.483,   1.007e-2
1.484,   1.007e-2
1.485,   1.007e-2
1.486,   1.007e-2
1.487,   1.007e-2
1.488,   1.007e-2
1.489,   1.007e-2
1.490,   1.007e-2
1.491,   1.007e-2
1.492,   1.007e-2
1.493,   1.007e-2
1.494,   1.007e-2
1.495,   1.007e-2
1.496,   1.007e-2
1.497,   1.007e-2
1.498,   1.007e-2
1.499,   1.007e-2
1.500,   1.007e-2
1.501,   1.007e-2