File: Experimental Records and Raw Data/batch5/final500/B5_BEST_500_#1_High_Quality(#26)-220mV.txt
June 9, 2023   11:05:11
Linear Sweep Voltammetry
File: d:\current work\al_oer\electrochemical test data\batch 5\500\B5_BEST_500_#1_High_Quality(#26)-220mV.txt
Data Source:  Experiment
Instrument Model:  CHI660E
Header:
Note:

Init E (V) = 0.892

Final E (V) = 1.505

Scan Rate (V/s) = 0.010
Sample Interval (V) = 0.001
Quiet Time (sec) = 2
Sensitivity (A/V) = 0.001
Comp R (ohm) = 4.5

Results:

Channel 1:

Potential/V, Current/A
0.892,   2.634e-4
0.893,   3.052e-4
0.894,   3.076e-4
0.895,   3.135e-4
0.896,   3.115e-4
0.897,   3.049e-4
0.898,   3.039e-4
0.899,   3.048e-4
0.900,   3.070e-4
0.901,   3.069e-4
0.902,   2.967e-4
0.903,   2.943e-4
0.904,   3.021e-4
0.905,   3.004e-4
0.906,   2.995e-4
0.907,   2.905e-4
0.908,   2.872e-4
0.909,   2.980e-4
0.910,   2.962e-4
0.911,   2.918e-4
0.912,   2.827e-4
0.913,   2.831e-4
0.914,   2.923e-4
0.915,   2.917e-4
0.916,   2.847e-4
0.917,   2.792e-4
0.918,   2.768e-4
0.919,   2.855e-4
0.920,   2.889e-4
0.921,   2.791e-4
0.922,   2.739e-4
0.923,   2.724e-4
0.924,   2.807e-4
0.925,   2.854e-4
0.926,   2.712e-4
0.927,   2.704e-4
0.928,   2.683e-4
0.929,   2.800e-4
0.930,   2.799e-4
0.931,   2.674e-4
0.932,   2.737e-4
0.933,   2.638e-4
0.934,   2.693e-4
0.935,   2.736e-4
0.936,   2.653e-4
0.937,   2.696e-4
0.938,   2.648e-4
0.939,   2.648e-4
0.940,   2.699e-4
0.941,   2.591e-4
0.942,   2.579e-4
0.943,   2.600e-4
0.944,   2.670e-4
0.945,   2.676e-4
0.946,   2.569e-4
0.947,   2.548e-4
0.948,   2.577e-4
0.949,   2.632e-4
0.950,   2.609e-4
0.951,   2.545e-4
0.952,   2.501e-4
0.953,   2.547e-4
0.954,   2.609e-4
0.955,   2.572e-4
0.956,   2.489e-4
0.957,   2.453e-4
0.958,   2.521e-4
0.959,   2.580e-4
0.960,   2.523e-4
0.961,   2.463e-4
0.962,   2.433e-4
0.963,   2.500e-4
0.964,   2.547e-4
0.965,   2.501e-4
0.966,   2.428e-4
0.967,   2.401e-4
0.968,   2.443e-4
0.969,   2.518e-4
0.970,   2.453e-4
0.971,   2.401e-4
0.972,   2.369e-4
0.973,   2.417e-4
0.974,   2.483e-4
0.975,   2.444e-4
0.976,   2.388e-4
0.977,   2.388e-4
0.978,   2.384e-4
0.979,   2.432e-4
0.980,   2.420e-4
0.981,   2.374e-4
0.982,   2.372e-4
0.983,   2.333e-4
0.984,   2.433e-4
0.985,   2.381e-4
0.986,   2.358e-4
0.987,   2.353e-4
0.988,   2.295e-4
0.989,   2.406e-4
0.990,   2.360e-4
0.991,   2.341e-4
0.992,   2.309e-4
0.993,   2.320e-4
0.994,   2.383e-4
0.995,   2.354e-4
0.996,   2.318e-4
0.997,   2.294e-4
0.998,   2.318e-4
0.999,   2.382e-4
1.000,   2.292e-4
1.001,   2.301e-4
1.002,   2.262e-4
1.003,   2.284e-4
1.004,   2.372e-4
1.005,   2.288e-4
1.006,   2.306e-4
1.007,   2.259e-4
1.008,   2.253e-4
1.009,   2.372e-4
1.010,   2.285e-4
1.011,   2.280e-4
1.012,   2.248e-4
1.013,   2.239e-4
1.014,   2.348e-4
1.015,   2.244e-4
1.016,   2.327e-4
1.017,   2.213e-4
1.018,   2.244e-4
1.019,   2.331e-4
1.020,   2.256e-4
1.021,   2.267e-4
1.022,   2.206e-4
1.023,   2.218e-4
1.024,   2.342e-4
1.025,   2.237e-4
1.026,   2.253e-4
1.027,   2.190e-4
1.028,   2.234e-4
1.029,   2.323e-4
1.030,   2.214e-4
1.031,   2.235e-4
1.032,   2.180e-4
1.033,   2.215e-4
1.034,   2.337e-4
1.035,   2.209e-4
1.036,   2.215e-4
1.037,   2.182e-4
1.038,   2.202e-4
1.039,   2.303e-4
1.040,   2.207e-4
1.041,   2.229e-4
1.042,   2.163e-4
1.043,   2.189e-4
1.044,   2.293e-4
1.045,   2.178e-4
1.046,   2.235e-4
1.047,   2.142e-4
1.048,   2.199e-4
1.049,   2.277e-4
1.050,   2.176e-4
1.051,   2.229e-4
1.052,   2.138e-4
1.053,   2.202e-4
1.054,   2.266e-4
1.055,   2.184e-4
1.056,   2.215e-4
1.057,   2.118e-4
1.058,   2.192e-4
1.059,   2.263e-4
1.060,   2.140e-4
1.061,   2.209e-4
1.062,   2.109e-4
1.063,   2.213e-4
1.064,   2.264e-4
1.065,   2.134e-4
1.066,   2.220e-4
1.067,   2.112e-4
1.068,   2.197e-4
1.069,   2.242e-4
1.070,   2.134e-4
1.071,   2.214e-4
1.072,   2.092e-4
1.073,   2.209e-4
1.074,   2.232e-4
1.075,   2.134e-4
1.076,   2.200e-4
1.077,   2.084e-4
1.078,   2.249e-4
1.079,   2.205e-4
1.080,   2.145e-4
1.081,   2.170e-4
1.082,   2.084e-4
1.083,   2.213e-4
1.084,   2.185e-4
1.085,   2.163e-4
1.086,   2.169e-4
1.087,   2.107e-4
1.088,   2.226e-4
1.089,   2.168e-4
1.090,   2.131e-4
1.091,   2.155e-4
1.092,   2.134e-4
1.093,   2.251e-4
1.094,   2.139e-4
1.095,   2.139e-4
1.096,   2.144e-4
1.097,   2.164e-4
1.098,   2.230e-4
1.099,   2.145e-4
1.100,   2.152e-4
1.101,   2.134e-4
1.102,   2.168e-4
1.103,   2.231e-4
1.104,   2.146e-4
1.105,   2.163e-4
1.106,   2.136e-4
1.107,   2.139e-4
1.108,   2.246e-4
1.109,   2.157e-4
1.110,   2.147e-4
1.111,   2.154e-4
1.112,   2.127e-4
1.113,   2.247e-4
1.114,   2.190e-4
1.115,   2.126e-4
1.116,   2.141e-4
1.117,   2.164e-4
1.118,   2.266e-4
1.119,   2.170e-4
1.120,   2.137e-4
1.121,   2.120e-4
1.122,   2.180e-4
1.123,   2.311e-4
1.124,   2.152e-4
1.125,   2.082e-4
1.126,   2.146e-4
1.127,   2.207e-4
1.128,   2.327e-4
1.129,   2.154e-4
1.130,   2.104e-4
1.131,   2.156e-4
1.132,   2.239e-4
1.133,   2.303e-4
1.134,   2.153e-4
1.135,   2.101e-4
1.136,   2.143e-4
1.137,   2.250e-4
1.138,   2.370e-4
1.139,   2.158e-4
1.140,   2.093e-4
1.141,   2.186e-4
1.142,   2.259e-4
1.143,   2.311e-4
1.144,   2.165e-4
1.145,   2.120e-4
1.146,   2.214e-4
1.147,   2.275e-4
1.148,   2.321e-4
1.149,   2.162e-4
1.150,   2.138e-4
1.151,   2.217e-4
1.152,   2.294e-4
1.153,   2.363e-4
1.154,   2.162e-4
1.155,   2.129e-4
1.156,   2.221e-4
1.157,   2.328e-4
1.158,   2.368e-4
1.159,   2.164e-4
1.160,   2.139e-4
1.161,   2.222e-4
1.162,   2.356e-4
1.163,   2.396e-4
1.164,   2.175e-4
1.165,   2.154e-4
1.166,   2.225e-4
1.167,   2.389e-4
1.168,   2.405e-4
1.169,   2.165e-4
1.170,   2.198e-4
1.171,   2.251e-4
1.172,   2.417e-4
1.173,   2.366e-4
1.174,   2.170e-4
1.175,   2.207e-4
1.176,   2.287e-4
1.177,   2.419e-4
1.178,   2.385e-4
1.179,   2.188e-4
1.180,   2.235e-4
1.181,   2.339e-4
1.182,   2.452e-4
1.183,   2.351e-4
1.184,   2.239e-4
1.185,   2.294e-4
1.186,   2.314e-4
1.187,   2.450e-4
1.188,   2.335e-4
1.189,   2.290e-4
1.190,   2.285e-4
1.191,   2.307e-4
1.192,   2.495e-4
1.193,   2.380e-4
1.194,   2.264e-4
1.195,   2.330e-4
1.196,   2.360e-4
1.197,   2.499e-4
1.198,   2.367e-4
1.199,   2.314e-4
1.200,   2.288e-4
1.201,   2.379e-4
1.202,   2.566e-4
1.203,   2.353e-4
1.204,   2.343e-4
1.205,   2.330e-4
1.206,   2.389e-4
1.207,   2.559e-4
1.208,   2.376e-4
1.209,   2.372e-4
1.210,   2.334e-4
1.211,   2.433e-4
1.212,   2.593e-4
1.213,   2.391e-4
1.214,   2.374e-4
1.215,   2.367e-4
1.216,   2.457e-4
1.217,   2.631e-4
1.218,   2.388e-4
1.219,   2.396e-4
1.220,   2.390e-4
1.221,   2.529e-4
1.222,   2.651e-4
1.223,   2.389e-4
1.224,   2.418e-4
1.225,   2.429e-4
1.226,   2.529e-4
1.227,   2.634e-4
1.228,   2.421e-4
1.229,   2.446e-4
1.230,   2.435e-4
1.231,   2.577e-4
1.232,   2.636e-4
1.233,   2.450e-4
1.234,   2.508e-4
1.235,   2.461e-4
1.236,   2.608e-4
1.237,   2.648e-4
1.238,   2.454e-4
1.239,   2.468e-4
1.240,   2.469e-4
1.241,   2.612e-4
1.242,   2.736e-4
1.243,   2.494e-4
1.244,   2.471e-4
1.245,   2.499e-4
1.246,   2.665e-4
1.247,   2.736e-4
1.248,   2.525e-4
1.249,   2.489e-4
1.250,   2.534e-4
1.251,   2.687e-4
1.252,   2.776e-4
1.253,   2.519e-4
1.254,   2.505e-4
1.255,   2.568e-4
1.256,   2.735e-4
1.257,   2.821e-4
1.258,   2.561e-4
1.259,   2.513e-4
1.260,   2.611e-4
1.261,   2.788e-4
1.262,   2.759e-4
1.263,   2.548e-4
1.264,   2.578e-4
1.265,   2.628e-4
1.266,   2.845e-4
1.267,   2.794e-4
1.268,   2.539e-4
1.269,   2.636e-4
1.270,   2.670e-4
1.271,   2.907e-4
1.272,   2.778e-4
1.273,   2.540e-4
1.274,   2.637e-4
1.275,   2.738e-4
1.276,   2.967e-4
1.277,   2.751e-4
1.278,   2.621e-4
1.279,   2.688e-4
1.280,   2.787e-4
1.281,   2.898e-4
1.282,   2.734e-4
1.283,   2.655e-4
1.284,   2.724e-4
1.285,   2.817e-4
1.286,   2.946e-4
1.287,   2.741e-4
1.288,   2.685e-4
1.289,   2.732e-4
1.290,   2.857e-4
1.291,   2.993e-4
1.292,   2.776e-4
1.293,   2.687e-4
1.294,   2.754e-4
1.295,   2.898e-4
1.296,   3.082e-4
1.297,   2.768e-4
1.298,   2.692e-4
1.299,   2.730e-4
1.300,   2.988e-4
1.301,   3.092e-4
1.302,   2.802e-4
1.303,   2.724e-4
1.304,   2.811e-4
1.305,   2.981e-4
1.306,   3.085e-4
1.307,   2.863e-4
1.308,   2.680e-4
1.309,   2.848e-4
1.310,   3.025e-4
1.311,   3.249e-4
1.312,   2.818e-4
1.313,   2.687e-4
1.314,   2.878e-4
1.315,   3.083e-4
1.316,   3.250e-4
1.317,   2.934e-4
1.318,   2.679e-4
1.319,   2.887e-4
1.320,   3.163e-4
1.321,   3.255e-4
1.322,   2.963e-4
1.323,   2.754e-4
1.324,   2.940e-4
1.325,   3.184e-4
1.326,   3.370e-4
1.327,   2.945e-4
1.328,   2.733e-4
1.329,   2.962e-4
1.330,   3.272e-4
1.331,   3.265e-4
1.332,   2.983e-4
1.333,   2.886e-4
1.334,   3.057e-4
1.335,   3.252e-4
1.336,   3.360e-4
1.337,   3.076e-4
1.338,   2.902e-4
1.339,   3.031e-4
1.340,   3.273e-4
1.341,   3.498e-4
1.342,   3.100e-4
1.343,   2.966e-4
1.344,   3.088e-4
1.345,   3.334e-4
1.346,   3.481e-4
1.347,   3.155e-4
1.348,   3.000e-4
1.349,   3.187e-4
1.350,   3.403e-4
1.351,   3.537e-4
1.352,   3.196e-4
1.353,   3.039e-4
1.354,   3.321e-4
1.355,   3.459e-4
1.356,   3.592e-4
1.357,   3.160e-4
1.358,   3.182e-4
1.359,   3.465e-4
1.360,   3.497e-4
1.361,   3.583e-4
1.362,   3.267e-4
1.363,   3.223e-4
1.364,   3.496e-4
1.365,   3.650e-4
1.366,   3.582e-4
1.367,   3.336e-4
1.368,   3.455e-4
1.369,   3.625e-4
1.370,   3.671e-4
1.371,   3.651e-4
1.372,   3.443e-4
1.373,   3.453e-4
1.374,   3.722e-4
1.375,   3.891e-4
1.376,   3.703e-4
1.377,   3.506e-4
1.378,   3.654e-4
1.379,   3.885e-4
1.380,   3.970e-4
1.381,   3.824e-4
1.382,   3.629e-4
1.383,   3.759e-4
1.384,   4.057e-4
1.385,   4.164e-4
1.386,   4.011e-4
1.387,   3.788e-4
1.388,   3.938e-4
1.389,   4.254e-4
1.390,   4.231e-4
1.391,   4.080e-4
1.392,   4.054e-4
1.393,   4.210e-4
1.394,   4.533e-4
1.395,   4.365e-4
1.396,   4.269e-4
1.397,   4.339e-4
1.398,   4.494e-4
1.399,   4.752e-4
1.400,   4.606e-4
1.401,   4.552e-4
1.402,   4.585e-4
1.403,   4.768e-4
1.404,   5.041e-4
1.405,   4.875e-4
1.406,   4.867e-4
1.407,   5.019e-4
1.408,   5.155e-4
1.409,   5.399e-4
1.410,   5.280e-4
1.411,   5.289e-4
1.412,   5.372e-4
1.413,   5.674e-4
1.414,   5.944e-4
1.415,   5.620e-4
1.416,   5.800e-4
1.417,   5.936e-4
1.418,   6.250e-4
1.419,   6.508e-4
1.420,   6.359e-4
1.421,   6.789e-4
1.422,   6.689e-4
1.423,   6.810e-4
1.424,   6.708e-4
1.425,   7.319e-4
1.426,   8.998e-4
1.427,   7.475e-4
1.428,   7.321e-4
1.429,   7.928e-4
1.430,   8.668e-4
1.431,   9.790e-4
1.432,   8.330e-4
1.433,   9.532e-4
1.434,   9.735e-4
1.435,   1.026e-3
1.436,   1.127e-3
1.437,   1.064e-3
1.438,   1.119e-3
1.439,   1.176e-3
1.440,   1.276e-3
1.441,   1.374e-3
1.442,   1.314e-3
1.443,   1.412e-3
1.444,   1.471e-3
1.445,   1.584e-3
1.446,   1.769e-3
1.447,   1.672e-3
1.448,   1.598e-3
1.449,   1.927e-3
1.450,   2.183e-3
1.451,   1.965e-3
1.452,   1.919e-3
1.453,   2.166e-3
1.454,   2.574e-3
1.455,   2.761e-3
1.456,   2.571e-3
1.457,   2.644e-3
1.458,   2.802e-3
1.459,   3.263e-3
1.460,   3.593e-3
1.461,   3.500e-3
1.462,   3.470e-3
1.463,   3.727e-3
1.464,   4.216e-3
1.465,   4.621e-3
1.466,   4.707e-3
1.467,   4.693e-3
1.468,   4.885e-3
1.469,   5.459e-3
1.470,   5.968e-3
1.471,   6.261e-3
1.472,   6.058e-3
1.473,   6.034e-3
1.474,   6.748e-3
1.475,   7.294e-3
1.476,   7.648e-3
1.477,   7.400e-3
1.478,   7.543e-3
1.479,   8.216e-3
1.480,   8.605e-3
1.481,   8.710e-3
1.482,   8.391e-3
1.483,   8.683e-3
1.484,   9.230e-3
1.485,   9.428e-3
1.486,   9.490e-3
1.487,   9.329e-3
1.488,   9.594e-3
1.489,   9.805e-3
1.490,   9.879e-3
1.491,   9.961e-3
1.492,   9.871e-3
1.493,   1.003e-2
1.494,   1.007e-2
1.495,   1.007e-2
1.496,   1.007e-2
1.497,   1.007e-2
1.498,   1.007e-2
1.499,   1.007e-2
1.500,   1.007e-2
1.501,   1.007e-2
1.502,   1.007e-2
1.503,   1.007e-2
1.504,   1.007e-2
1.505,   1.007e-2