File: Experimental Records and Raw Data/batch5/final500/B5_BEST_500_#1_Full(#12)-220mV.txt
June 9, 2023   16:43:08
Linear Sweep Voltammetry
File: d:\current work\al_oer\electrochemical test data\batch 5\500\B5_BEST_500_#1_Full(#12)-220mV.txt
Data Source:  Experiment
Instrument Model:  CHI660E
Header:
Note:

Init E (V) = 0.897

Final E (V) = 1.495

Scan Rate (V/s) = 0.010
Sample Interval (V) = 0.001
Quiet Time (sec) = 2
Sensitivity (A/V) = 0.001
Comp R (ohm) = 4.2

Results:

Channel 1:

Potential/V, Current/A
0.897,   3.619e-4
0.898,   4.041e-4
0.899,   4.022e-4
0.900,   4.051e-4
0.901,   4.026e-4
0.902,   3.965e-4
0.903,   3.961e-4
0.904,   4.002e-4
0.905,   3.978e-4
0.906,   3.938e-4
0.907,   3.894e-4
0.908,   3.871e-4
0.909,   3.884e-4
0.910,   3.818e-4
0.911,   3.780e-4
0.912,   3.807e-4
0.913,   3.817e-4
0.914,   3.795e-4
0.915,   3.734e-4
0.916,   3.711e-4
0.917,   3.735e-4
0.918,   3.700e-4
0.919,   3.644e-4
0.920,   3.634e-4
0.921,   3.666e-4
0.922,   3.660e-4
0.923,   3.635e-4
0.924,   3.552e-4
0.925,   3.580e-4
0.926,   3.591e-4
0.927,   3.539e-4
0.928,   3.498e-4
0.929,   3.526e-4
0.930,   3.544e-4
0.931,   3.517e-4
0.932,   3.470e-4
0.933,   3.449e-4
0.934,   3.472e-4
0.935,   3.451e-4
0.936,   3.400e-4
0.937,   3.409e-4
0.938,   3.436e-4
0.939,   3.421e-4
0.940,   3.387e-4
0.941,   3.342e-4
0.942,   3.361e-4
0.943,   3.381e-4
0.944,   3.327e-4
0.945,   3.301e-4
0.946,   3.326e-4
0.947,   3.351e-4
0.948,   3.299e-4
0.949,   3.265e-4
0.950,   3.284e-4
0.951,   3.278e-4
0.952,   3.247e-4
0.953,   3.220e-4
0.954,   3.220e-4
0.955,   3.262e-4
0.956,   3.251e-4
0.957,   3.211e-4
0.958,   3.177e-4
0.959,   3.194e-4
0.960,   3.202e-4
0.961,   3.159e-4
0.962,   3.137e-4
0.963,   3.189e-4
0.964,   3.184e-4
0.965,   3.128e-4
0.966,   3.113e-4
0.967,   3.118e-4
0.968,   3.138e-4
0.969,   3.115e-4
0.970,   3.100e-4
0.971,   3.070e-4
0.972,   3.124e-4
0.973,   3.084e-4
0.974,   3.074e-4
0.975,   3.056e-4
0.976,   3.101e-4
0.977,   3.071e-4
0.978,   3.022e-4
0.979,   3.014e-4
0.980,   3.051e-4
0.981,   3.055e-4
0.982,   3.036e-4
0.983,   3.010e-4
0.984,   3.007e-4
0.985,   3.020e-4
0.986,   2.996e-4
0.987,   2.964e-4
0.988,   2.985e-4
0.989,   3.006e-4
0.990,   2.995e-4
0.991,   2.953e-4
0.992,   2.950e-4
0.993,   2.980e-4
0.994,   2.966e-4
0.995,   2.927e-4
0.996,   2.933e-4
0.997,   2.961e-4
0.998,   2.945e-4
0.999,   2.949e-4
1.000,   2.919e-4
1.001,   2.923e-4
1.002,   2.937e-4
1.003,   2.910e-4
1.004,   2.893e-4
1.005,   2.910e-4
1.006,   2.927e-4
1.007,   2.906e-4
1.008,   2.897e-4
1.009,   2.889e-4
1.010,   2.899e-4
1.011,   2.887e-4
1.012,   2.857e-4
1.013,   2.852e-4
1.014,   2.886e-4
1.015,   2.901e-4
1.016,   2.876e-4
1.017,   2.849e-4
1.018,   2.852e-4
1.019,   2.879e-4
1.020,   2.853e-4
1.021,   2.830e-4
1.022,   2.842e-4
1.023,   2.868e-4
1.024,   2.858e-4
1.025,   2.838e-4
1.026,   2.814e-4
1.027,   2.847e-4
1.028,   2.852e-4
1.029,   2.804e-4
1.030,   2.801e-4
1.031,   2.833e-4
1.032,   2.842e-4
1.033,   2.827e-4
1.034,   2.802e-4
1.035,   2.800e-4
1.036,   2.837e-4
1.037,   2.807e-4
1.038,   2.771e-4
1.039,   2.796e-4
1.040,   2.850e-4
1.041,   2.825e-4
1.042,   2.791e-4
1.043,   2.759e-4
1.044,   2.811e-4
1.045,   2.803e-4
1.046,   2.764e-4
1.047,   2.780e-4
1.048,   2.784e-4
1.049,   2.812e-4
1.050,   2.790e-4
1.051,   2.770e-4
1.052,   2.782e-4
1.053,   2.806e-4
1.054,   2.758e-4
1.055,   2.734e-4
1.056,   2.782e-4
1.057,   2.794e-4
1.058,   2.790e-4
1.059,   2.769e-4
1.060,   2.770e-4
1.061,   2.776e-4
1.062,   2.760e-4
1.063,   2.739e-4
1.064,   2.740e-4
1.065,   2.782e-4
1.066,   2.800e-4
1.067,   2.771e-4
1.068,   2.776e-4
1.069,   2.748e-4
1.070,   2.770e-4
1.071,   2.741e-4
1.072,   2.729e-4
1.073,   2.753e-4
1.074,   2.791e-4
1.075,   2.781e-4
1.076,   2.754e-4
1.077,   2.727e-4
1.078,   2.769e-4
1.079,   2.777e-4
1.080,   2.724e-4
1.081,   2.723e-4
1.082,   2.787e-4
1.083,   2.784e-4
1.084,   2.783e-4
1.085,   2.738e-4
1.086,   2.750e-4
1.087,   2.773e-4
1.088,   2.725e-4
1.089,   2.717e-4
1.090,   2.745e-4
1.091,   2.795e-4
1.092,   2.781e-4
1.093,   2.744e-4
1.094,   2.746e-4
1.095,   2.785e-4
1.096,   2.760e-4
1.097,   2.719e-4
1.098,   2.728e-4
1.099,   2.768e-4
1.100,   2.797e-4
1.101,   2.780e-4
1.102,   2.722e-4
1.103,   2.771e-4
1.104,   2.780e-4
1.105,   2.737e-4
1.106,   2.714e-4
1.107,   2.755e-4
1.108,   2.800e-4
1.109,   2.780e-4
1.110,   2.779e-4
1.111,   2.770e-4
1.112,   2.770e-4
1.113,   2.751e-4
1.114,   2.713e-4
1.115,   2.733e-4
1.116,   2.793e-4
1.117,   2.811e-4
1.118,   2.767e-4
1.119,   2.758e-4
1.120,   2.786e-4
1.121,   2.794e-4
1.122,   2.745e-4
1.123,   2.732e-4
1.124,   2.772e-4
1.125,   2.813e-4
1.126,   2.802e-4
1.127,   2.768e-4
1.128,   2.767e-4
1.129,   2.799e-4
1.130,   2.789e-4
1.131,   2.730e-4
1.132,   2.758e-4
1.133,   2.805e-4
1.134,   2.831e-4
1.135,   2.794e-4
1.136,   2.776e-4
1.137,   2.799e-4
1.138,   2.817e-4
1.139,   2.778e-4
1.140,   2.733e-4
1.141,   2.783e-4
1.142,   2.835e-4
1.143,   2.836e-4
1.144,   2.805e-4
1.145,   2.794e-4
1.146,   2.799e-4
1.147,   2.825e-4
1.148,   2.751e-4
1.149,   2.778e-4
1.150,   2.826e-4
1.151,   2.858e-4
1.152,   2.816e-4
1.153,   2.795e-4
1.154,   2.819e-4
1.155,   2.832e-4
1.156,   2.806e-4
1.157,   2.773e-4
1.158,   2.819e-4
1.159,   2.866e-4
1.160,   2.855e-4
1.161,   2.822e-4
1.162,   2.806e-4
1.163,   2.842e-4
1.164,   2.842e-4
1.165,   2.798e-4
1.166,   2.805e-4
1.167,   2.876e-4
1.168,   2.906e-4
1.169,   2.854e-4
1.170,   2.794e-4
1.171,   2.844e-4
1.172,   2.863e-4
1.173,   2.823e-4
1.174,   2.813e-4
1.175,   2.859e-4
1.176,   2.882e-4
1.177,   2.887e-4
1.178,   2.843e-4
1.179,   2.842e-4
1.180,   2.879e-4
1.181,   2.869e-4
1.182,   2.827e-4
1.183,   2.847e-4
1.184,   2.892e-4
1.185,   2.910e-4
1.186,   2.874e-4
1.187,   2.849e-4
1.188,   2.889e-4
1.189,   2.883e-4
1.190,   2.875e-4
1.191,   2.855e-4
1.192,   2.850e-4
1.193,   2.931e-4
1.194,   2.918e-4
1.195,   2.873e-4
1.196,   2.901e-4
1.197,   2.891e-4
1.198,   2.885e-4
1.199,   2.868e-4
1.200,   2.863e-4
1.201,   2.931e-4
1.202,   2.946e-4
1.203,   2.910e-4
1.204,   2.891e-4
1.205,   2.904e-4
1.206,   2.931e-4
1.207,   2.894e-4
1.208,   2.856e-4
1.209,   2.910e-4
1.210,   2.974e-4
1.211,   2.953e-4
1.212,   2.904e-4
1.213,   2.917e-4
1.214,   2.934e-4
1.215,   2.923e-4
1.216,   2.881e-4
1.217,   2.901e-4
1.218,   2.974e-4
1.219,   2.994e-4
1.220,   2.966e-4
1.221,   2.900e-4
1.222,   2.921e-4
1.223,   2.963e-4
1.224,   2.920e-4
1.225,   2.903e-4
1.226,   2.970e-4
1.227,   2.993e-4
1.228,   2.996e-4
1.229,   2.938e-4
1.230,   2.927e-4
1.231,   2.976e-4
1.232,   2.965e-4
1.233,   2.924e-4
1.234,   2.939e-4
1.235,   3.020e-4
1.236,   3.000e-4
1.237,   2.960e-4
1.238,   2.936e-4
1.239,   2.974e-4
1.240,   2.986e-4
1.241,   2.965e-4
1.242,   2.940e-4
1.243,   2.977e-4
1.244,   3.040e-4
1.245,   3.021e-4
1.246,   2.950e-4
1.247,   2.955e-4
1.248,   3.004e-4
1.249,   3.013e-4
1.250,   2.960e-4
1.251,   2.982e-4
1.252,   3.043e-4
1.253,   3.050e-4
1.254,   3.018e-4
1.255,   2.982e-4
1.256,   2.988e-4
1.257,   3.041e-4
1.258,   3.007e-4
1.259,   2.957e-4
1.260,   3.009e-4
1.261,   3.079e-4
1.262,   3.068e-4
1.263,   3.005e-4
1.264,   2.998e-4
1.265,   3.049e-4
1.266,   3.035e-4
1.267,   2.989e-4
1.268,   3.016e-4
1.269,   3.077e-4
1.270,   3.118e-4
1.271,   3.087e-4
1.272,   3.005e-4
1.273,   3.008e-4
1.274,   3.078e-4
1.275,   3.075e-4
1.276,   3.018e-4
1.277,   3.102e-4
1.278,   3.131e-4
1.279,   3.127e-4
1.280,   3.057e-4
1.281,   3.050e-4
1.282,   3.092e-4
1.283,   3.100e-4
1.284,   3.054e-4
1.285,   3.064e-4
1.286,   3.137e-4
1.287,   3.177e-4
1.288,   3.130e-4
1.289,   3.083e-4
1.290,   3.110e-4
1.291,   3.139e-4
1.292,   3.117e-4
1.293,   3.087e-4
1.294,   3.134e-4
1.295,   3.180e-4
1.296,   3.206e-4
1.297,   3.150e-4
1.298,   3.140e-4
1.299,   3.173e-4
1.300,   3.182e-4
1.301,   3.105e-4
1.302,   3.181e-4
1.303,   3.239e-4
1.304,   3.253e-4
1.305,   3.237e-4
1.306,   3.159e-4
1.307,   3.194e-4
1.308,   3.262e-4
1.309,   3.254e-4
1.310,   3.175e-4
1.311,   3.281e-4
1.312,   3.326e-4
1.313,   3.309e-4
1.314,   3.264e-4
1.315,   3.237e-4
1.316,   3.307e-4
1.317,   3.358e-4
1.318,   3.281e-4
1.319,   3.277e-4
1.320,   3.334e-4
1.321,   3.428e-4
1.322,   3.379e-4
1.323,   3.303e-4
1.324,   3.362e-4
1.325,   3.421e-4
1.326,   3.403e-4
1.327,   3.347e-4
1.328,   3.416e-4
1.329,   3.505e-4
1.330,   3.506e-4
1.331,   3.416e-4
1.332,   3.398e-4
1.333,   3.472e-4
1.334,   3.490e-4
1.335,   3.416e-4
1.336,   3.439e-4
1.337,   3.535e-4
1.338,   3.611e-4
1.339,   3.585e-4
1.340,   3.458e-4
1.341,   3.552e-4
1.342,   3.560e-4
1.343,   3.564e-4
1.344,   3.543e-4
1.345,   3.597e-4
1.346,   3.673e-4
1.347,   3.698e-4
1.348,   3.592e-4
1.349,   3.570e-4
1.350,   3.705e-4
1.351,   3.676e-4
1.352,   3.630e-4
1.353,   3.642e-4
1.354,   3.755e-4
1.355,   3.857e-4
1.356,   3.746e-4
1.357,   3.655e-4
1.358,   3.735e-4
1.359,   3.826e-4
1.360,   3.802e-4
1.361,   3.773e-4
1.362,   3.775e-4
1.363,   3.936e-4
1.364,   3.958e-4
1.365,   3.850e-4
1.366,   3.829e-4
1.367,   3.905e-4
1.368,   3.951e-4
1.369,   3.891e-4
1.370,   3.913e-4
1.371,   4.036e-4
1.372,   4.126e-4
1.373,   4.054e-4
1.374,   3.968e-4
1.375,   4.046e-4
1.376,   4.143e-4
1.377,   4.122e-4
1.378,   4.095e-4
1.379,   4.185e-4
1.380,   4.313e-4
1.381,   4.287e-4
1.382,   4.184e-4
1.383,   4.223e-4
1.384,   4.288e-4
1.385,   4.370e-4
1.386,   4.326e-4
1.387,   4.330e-4
1.388,   4.496e-4
1.389,   4.597e-4
1.390,   4.542e-4
1.391,   4.455e-4
1.392,   4.534e-4
1.393,   4.698e-4
1.394,   4.616e-4
1.395,   4.603e-4
1.396,   4.750e-4
1.397,   4.926e-4
1.398,   4.951e-4
1.399,   4.849e-4
1.400,   4.867e-4
1.401,   5.022e-4
1.402,   5.037e-4
1.403,   5.029e-4
1.404,   5.107e-4
1.405,   5.333e-4
1.406,   5.474e-4
1.407,   5.418e-4
1.408,   5.322e-4
1.409,   5.458e-4
1.410,   5.628e-4
1.411,   5.665e-4
1.412,   5.693e-4
1.413,   5.889e-4
1.414,   6.137e-4
1.415,   6.215e-4
1.416,   6.138e-4
1.417,   6.157e-4
1.418,   6.429e-4
1.419,   6.562e-4
1.420,   6.577e-4
1.421,   6.772e-4
1.422,   7.118e-4
1.423,   7.395e-4
1.424,   7.403e-4
1.425,   7.369e-4
1.426,   7.576e-4
1.427,   7.940e-4
1.428,   8.127e-4
1.429,   8.214e-4
1.430,   8.683e-4
1.431,   9.191e-4
1.432,   9.346e-4
1.433,   9.390e-4
1.434,   9.618e-4
1.435,   1.006e-3
1.436,   1.049e-3
1.437,   1.074e-3
1.438,   1.123e-3
1.439,   1.199e-3
1.440,   1.259e-3
1.441,   1.281e-3
1.442,   1.303e-3
1.443,   1.366e-3
1.444,   1.448e-3
1.445,   1.490e-3
1.446,   1.554e-3
1.447,   1.660e-3
1.448,   1.785e-3
1.449,   1.865e-3
1.450,   1.896e-3
1.451,   1.963e-3
1.452,   2.086e-3
1.453,   2.193e-3
1.454,   2.276e-3
1.455,   2.433e-3
1.456,   2.616e-3
1.457,   2.800e-3
1.458,   2.882e-3
1.459,   2.956e-3
1.460,   3.111e-3
1.461,   3.309e-3
1.462,   3.461e-3
1.463,   3.613e-3
1.464,   3.848e-3
1.465,   4.177e-3
1.466,   4.374e-3
1.467,   4.461e-3
1.468,   4.609e-3
1.469,   4.878e-3
1.470,   5.094e-3
1.471,   5.283e-3
1.472,   5.571e-3
1.473,   5.956e-3
1.474,   6.276e-3
1.475,   6.439e-3
1.476,   6.580e-3
1.477,   6.874e-3
1.478,   7.204e-3
1.479,   7.393e-3
1.480,   7.646e-3
1.481,   8.068e-3
1.482,   8.444e-3
1.483,   8.648e-3
1.484,   8.738e-3
1.485,   8.952e-3
1.486,   9.277e-3
1.487,   9.413e-3
1.488,   9.559e-3
1.489,   9.796e-3
1.490,   9.928e-3
1.491,   1.001e-2
1.492,   1.006e-2
1.493,   1.007e-2
1.494,   1.007e-2
1.495,   1.007e-2