File: Experimental Records and Raw Data/batch5/final500/B5_BEST_500_#1_Full(#16)-182mV.txt
June 9, 2023   16:53:15
Linear Sweep Voltammetry
File: d:\current work\al_oer\electrochemical test data\batch 5\500\B5_BEST_500_#1_Full(#16)-182mV.txt
Data Source:  Experiment
Instrument Model:  CHI660E
Header:
Note:

Init E (V) = 0.902

Final E (V) = 1.471

Scan Rate (V/s) = 0.010
Sample Interval (V) = 0.001
Quiet Time (sec) = 2
Sensitivity (A/V) = 0.001
Comp R (ohm) = 3.7

Results:

Channel 1:

Potential/V, Current/A
0.902,   8.788e-4
0.903,   1.071e-3
0.904,   1.051e-3
0.905,   1.029e-3
0.906,   1.037e-3
0.907,   1.048e-3
0.908,   1.007e-3
0.909,   9.727e-4
0.910,   1.011e-3
0.911,   1.011e-3
0.912,   9.612e-4
0.913,   9.324e-4
0.914,   9.763e-4
0.915,   9.721e-4
0.916,   9.173e-4
0.917,   8.989e-4
0.918,   9.495e-4
0.919,   9.362e-4
0.920,   8.876e-4
0.921,   8.727e-4
0.922,   9.204e-4
0.923,   8.995e-4
0.924,   8.665e-4
0.925,   8.533e-4
0.926,   8.997e-4
0.927,   8.741e-4
0.928,   8.353e-4
0.929,   8.325e-4
0.930,   8.744e-4
0.931,   8.488e-4
0.932,   8.243e-4
0.933,   8.146e-4
0.934,   8.608e-4
0.935,   8.183e-4
0.936,   8.067e-4
0.937,   8.025e-4
0.938,   8.379e-4
0.939,   8.045e-4
0.940,   7.921e-4
0.941,   7.858e-4
0.942,   8.275e-4
0.943,   7.865e-4
0.944,   7.788e-4
0.945,   7.785e-4
0.946,   8.061e-4
0.947,   7.777e-4
0.948,   7.656e-4
0.949,   7.692e-4
0.950,   7.954e-4
0.951,   7.647e-4
0.952,   7.535e-4
0.953,   7.596e-4
0.954,   7.801e-4
0.955,   7.541e-4
0.956,   7.467e-4
0.957,   7.590e-4
0.958,   7.719e-4
0.959,   7.420e-4
0.960,   7.361e-4
0.961,   7.383e-4
0.962,   7.611e-4
0.963,   7.333e-4
0.964,   7.291e-4
0.965,   7.375e-4
0.966,   7.516e-4
0.967,   7.242e-4
0.968,   7.243e-4
0.969,   7.380e-4
0.970,   7.345e-4
0.971,   7.119e-4
0.972,   7.176e-4
0.973,   7.258e-4
0.974,   7.355e-4
0.975,   7.133e-4
0.976,   7.044e-4
0.977,   7.253e-4
0.978,   7.274e-4
0.979,   7.036e-4
0.980,   7.026e-4
0.981,   7.208e-4
0.982,   7.228e-4
0.983,   7.036e-4
0.984,   6.977e-4
0.985,   7.120e-4
0.986,   7.133e-4
0.987,   6.937e-4
0.988,   6.951e-4
0.989,   7.117e-4
0.990,   7.067e-4
0.991,   6.929e-4
0.992,   6.919e-4
0.993,   7.185e-4
0.994,   7.009e-4
0.995,   6.804e-4
0.996,   6.871e-4
0.997,   7.073e-4
0.998,   6.959e-4
0.999,   6.851e-4
1.000,   6.901e-4
1.001,   7.009e-4
1.002,   6.883e-4
1.003,   6.822e-4
1.004,   6.824e-4
1.005,   7.014e-4
1.006,   6.878e-4
1.007,   6.801e-4
1.008,   6.762e-4
1.009,   7.034e-4
1.010,   6.817e-4
1.011,   6.850e-4
1.012,   6.696e-4
1.013,   6.996e-4
1.014,   6.814e-4
1.015,   6.736e-4
1.016,   6.730e-4
1.017,   6.970e-4
1.018,   6.760e-4
1.019,   6.745e-4
1.020,   6.739e-4
1.021,   6.922e-4
1.022,   6.779e-4
1.023,   6.731e-4
1.024,   6.699e-4
1.025,   6.920e-4
1.026,   6.743e-4
1.027,   6.767e-4
1.028,   6.670e-4
1.029,   6.938e-4
1.030,   6.708e-4
1.031,   6.650e-4
1.032,   6.724e-4
1.033,   6.938e-4
1.034,   6.680e-4
1.035,   6.727e-4
1.036,   6.775e-4
1.037,   6.820e-4
1.038,   6.681e-4
1.039,   6.693e-4
1.040,   6.736e-4
1.041,   6.853e-4
1.042,   6.664e-4
1.043,   6.678e-4
1.044,   6.765e-4
1.045,   6.867e-4
1.046,   6.677e-4
1.047,   6.653e-4
1.048,   6.802e-4
1.049,   6.871e-4
1.050,   6.653e-4
1.051,   6.654e-4
1.052,   6.851e-4
1.053,   6.782e-4
1.054,   6.668e-4
1.055,   6.671e-4
1.056,   6.790e-4
1.057,   6.828e-4
1.058,   6.679e-4
1.059,   6.658e-4
1.060,   6.851e-4
1.061,   6.875e-4
1.062,   6.713e-4
1.063,   6.684e-4
1.064,   6.874e-4
1.065,   6.770e-4
1.066,   6.667e-4
1.067,   6.692e-4
1.068,   6.893e-4
1.069,   6.819e-4
1.070,   6.725e-4
1.071,   6.689e-4
1.072,   6.902e-4
1.073,   6.835e-4
1.074,   6.788e-4
1.075,   6.666e-4
1.076,   6.920e-4
1.077,   6.848e-4
1.078,   6.763e-4
1.079,   6.749e-4
1.080,   6.973e-4
1.081,   6.811e-4
1.082,   6.738e-4
1.083,   6.739e-4
1.084,   7.080e-4
1.085,   6.795e-4
1.086,   6.802e-4
1.087,   6.753e-4
1.088,   7.033e-4
1.089,   6.892e-4
1.090,   6.766e-4
1.091,   6.746e-4
1.092,   7.081e-4
1.093,   6.949e-4
1.094,   6.822e-4
1.095,   6.796e-4
1.096,   7.078e-4
1.097,   6.960e-4
1.098,   6.897e-4
1.099,   6.815e-4
1.100,   7.076e-4
1.101,   6.973e-4
1.102,   6.895e-4
1.103,   6.880e-4
1.104,   7.086e-4
1.105,   6.998e-4
1.106,   6.914e-4
1.107,   6.923e-4
1.108,   7.091e-4
1.109,   6.931e-4
1.110,   6.987e-4
1.111,   6.999e-4
1.112,   7.138e-4
1.113,   6.963e-4
1.114,   6.996e-4
1.115,   7.080e-4
1.116,   7.227e-4
1.117,   6.976e-4
1.118,   7.086e-4
1.119,   7.101e-4
1.120,   7.213e-4
1.121,   7.012e-4
1.122,   7.094e-4
1.123,   7.153e-4
1.124,   7.265e-4
1.125,   7.047e-4
1.126,   7.121e-4
1.127,   7.209e-4
1.128,   7.299e-4
1.129,   7.201e-4
1.130,   7.099e-4
1.131,   7.256e-4
1.132,   7.318e-4
1.133,   7.157e-4
1.134,   7.132e-4
1.135,   7.329e-4
1.136,   7.474e-4
1.137,   7.214e-4
1.138,   7.211e-4
1.139,   7.396e-4
1.140,   7.468e-4
1.141,   7.246e-4
1.142,   7.260e-4
1.143,   7.464e-4
1.144,   7.472e-4
1.145,   7.315e-4
1.146,   7.218e-4
1.147,   7.502e-4
1.148,   7.551e-4
1.149,   7.272e-4
1.150,   7.300e-4
1.151,   7.605e-4
1.152,   7.559e-4
1.153,   7.427e-4
1.154,   7.327e-4
1.155,   7.639e-4
1.156,   7.552e-4
1.157,   7.413e-4
1.158,   7.456e-4
1.159,   7.695e-4
1.160,   7.569e-4
1.161,   7.488e-4
1.162,   7.505e-4
1.163,   7.807e-4
1.164,   7.680e-4
1.165,   7.532e-4
1.166,   7.602e-4
1.167,   7.867e-4
1.168,   7.604e-4
1.169,   7.523e-4
1.170,   7.662e-4
1.171,   7.906e-4
1.172,   7.648e-4
1.173,   7.686e-4
1.174,   7.732e-4
1.175,   7.970e-4
1.176,   7.694e-4
1.177,   7.768e-4
1.178,   7.785e-4
1.179,   8.031e-4
1.180,   7.800e-4
1.181,   7.754e-4
1.182,   7.888e-4
1.183,   7.996e-4
1.184,   7.790e-4
1.185,   7.943e-4
1.186,   7.921e-4
1.187,   8.079e-4
1.188,   7.949e-4
1.189,   7.903e-4
1.190,   8.033e-4
1.191,   8.138e-4
1.192,   7.988e-4
1.193,   8.096e-4
1.194,   7.994e-4
1.195,   8.269e-4
1.196,   8.067e-4
1.197,   8.061e-4
1.198,   8.083e-4
1.199,   8.328e-4
1.200,   8.095e-4
1.201,   8.026e-4
1.202,   8.185e-4
1.203,   8.457e-4
1.204,   8.106e-4
1.205,   8.184e-4
1.206,   8.259e-4
1.207,   8.488e-4
1.208,   8.239e-4
1.209,   8.220e-4
1.210,   8.323e-4
1.211,   8.544e-4
1.212,   8.360e-4
1.213,   8.332e-4
1.214,   8.411e-4
1.215,   8.572e-4
1.216,   8.486e-4
1.217,   8.266e-4
1.218,   8.464e-4
1.219,   8.608e-4
1.220,   8.408e-4
1.221,   8.430e-4
1.222,   8.683e-4
1.223,   8.631e-4
1.224,   8.638e-4
1.225,   8.405e-4
1.226,   8.703e-4
1.227,   8.754e-4
1.228,   8.527e-4
1.229,   8.615e-4
1.230,   8.912e-4
1.231,   8.917e-4
1.232,   8.536e-4
1.233,   8.680e-4
1.234,   9.005e-4
1.235,   8.860e-4
1.236,   8.738e-4
1.237,   8.694e-4
1.238,   9.000e-4
1.239,   8.812e-4
1.240,   8.755e-4
1.241,   8.867e-4
1.242,   9.134e-4
1.243,   8.890e-4
1.244,   8.929e-4
1.245,   8.889e-4
1.246,   9.200e-4
1.247,   8.897e-4
1.248,   8.907e-4
1.249,   9.016e-4
1.250,   9.291e-4
1.251,   8.986e-4
1.252,   8.974e-4
1.253,   9.121e-4
1.254,   9.302e-4
1.255,   9.001e-4
1.256,   9.071e-4
1.257,   9.221e-4
1.258,   9.468e-4
1.259,   9.113e-4
1.260,   9.138e-4
1.261,   9.169e-4
1.262,   9.501e-4
1.263,   9.171e-4
1.264,   9.214e-4
1.265,   9.241e-4
1.266,   9.449e-4
1.267,   9.161e-4
1.268,   9.293e-4
1.269,   9.409e-4
1.270,   9.603e-4
1.271,   9.180e-4
1.272,   9.303e-4
1.273,   9.512e-4
1.274,   9.675e-4
1.275,   9.302e-4
1.276,   9.329e-4
1.277,   9.461e-4
1.278,   9.708e-4
1.279,   9.332e-4
1.280,   9.349e-4
1.281,   9.566e-4
1.282,   9.794e-4
1.283,   9.428e-4
1.284,   9.447e-4
1.285,   9.597e-4
1.286,   9.857e-4
1.287,   9.396e-4
1.288,   9.585e-4
1.289,   9.780e-4
1.290,   9.733e-4
1.291,   9.532e-4
1.292,   9.487e-4
1.293,   9.820e-4
1.294,   9.937e-4
1.295,   9.632e-4
1.296,   9.493e-4
1.297,   9.759e-4
1.298,   9.930e-4
1.299,   9.457e-4
1.300,   9.625e-4
1.301,   1.006e-3
1.302,   9.888e-4
1.303,   9.594e-4
1.304,   9.695e-4
1.305,   1.004e-3
1.306,   9.946e-4
1.307,   9.739e-4
1.308,   9.767e-4
1.309,   1.012e-3
1.310,   1.009e-3
1.311,   9.666e-4
1.312,   9.871e-4
1.313,   1.018e-3
1.314,   1.008e-3
1.315,   9.813e-4
1.316,   9.788e-4
1.317,   1.025e-3
1.318,   1.013e-3
1.319,   9.901e-4
1.320,   9.914e-4
1.321,   1.036e-3
1.322,   1.015e-3
1.323,   9.928e-4
1.324,   1.004e-3
1.325,   1.041e-3
1.326,   1.027e-3
1.327,   1.016e-3
1.328,   1.006e-3
1.329,   1.044e-3
1.330,   1.027e-3
1.331,   1.015e-3
1.332,   1.025e-3
1.333,   1.067e-3
1.334,   1.029e-3
1.335,   1.018e-3
1.336,   1.027e-3
1.337,   1.068e-3
1.338,   1.046e-3
1.339,   1.030e-3
1.340,   1.035e-3
1.341,   1.080e-3
1.342,   1.056e-3
1.343,   1.044e-3
1.344,   1.049e-3
1.345,   1.107e-3
1.346,   1.070e-3
1.347,   1.048e-3
1.348,   1.066e-3
1.349,   1.108e-3
1.350,   1.084e-3
1.351,   1.063e-3
1.352,   1.078e-3
1.353,   1.129e-3
1.354,   1.096e-3
1.355,   1.074e-3
1.356,   1.094e-3
1.357,   1.143e-3
1.358,   1.111e-3
1.359,   1.094e-3
1.360,   1.113e-3
1.361,   1.162e-3
1.362,   1.126e-3
1.363,   1.113e-3
1.364,   1.133e-3
1.365,   1.170e-3
1.366,   1.153e-3
1.367,   1.125e-3
1.368,   1.160e-3
1.369,   1.192e-3
1.370,   1.147e-3
1.371,   1.166e-3
1.372,   1.204e-3
1.373,   1.213e-3
1.374,   1.184e-3
1.375,   1.203e-3
1.376,   1.240e-3
1.377,   1.243e-3
1.378,   1.219e-3
1.379,   1.237e-3
1.380,   1.285e-3
1.381,   1.284e-3
1.382,   1.255e-3
1.383,   1.287e-3
1.384,   1.323e-3
1.385,   1.331e-3
1.386,   1.308e-3
1.387,   1.333e-3
1.388,   1.385e-3
1.389,   1.381e-3
1.390,   1.371e-3
1.391,   1.387e-3
1.392,   1.448e-3
1.393,   1.423e-3
1.394,   1.436e-3
1.395,   1.468e-3
1.396,   1.518e-3
1.397,   1.507e-3
1.398,   1.527e-3
1.399,   1.552e-3
1.400,   1.614e-3
1.401,   1.592e-3
1.402,   1.617e-3
1.403,   1.658e-3
1.404,   1.730e-3
1.405,   1.708e-3
1.406,   1.742e-3
1.407,   1.779e-3
1.408,   1.855e-3
1.409,   1.836e-3
1.410,   1.899e-3
1.411,   1.923e-3
1.412,   2.014e-3
1.413,   1.992e-3
1.414,   2.068e-3
1.415,   2.120e-3
1.416,   2.228e-3
1.417,   2.216e-3
1.418,   2.297e-3
1.419,   2.334e-3
1.420,   2.439e-3
1.421,   2.495e-3
1.422,   2.533e-3
1.423,   2.618e-3
1.424,   2.725e-3
1.425,   2.775e-3
1.426,   2.868e-3
1.427,   2.939e-3
1.428,   3.106e-3
1.429,   3.163e-3
1.430,   3.268e-3
1.431,   3.365e-3
1.432,   3.572e-3
1.433,   3.656e-3
1.434,   3.743e-3
1.435,   3.898e-3
1.436,   4.144e-3
1.437,   4.191e-3
1.438,   4.438e-3
1.439,   4.638e-3
1.440,   4.887e-3
1.441,   4.923e-3
1.442,   5.185e-3
1.443,   5.483e-3
1.444,   5.790e-3
1.445,   5.947e-3
1.446,   6.250e-3
1.447,   6.559e-3
1.448,   6.981e-3
1.449,   7.138e-3
1.450,   7.445e-3
1.451,   7.888e-3
1.452,   8.351e-3
1.453,   8.522e-3
1.454,   8.922e-3
1.455,   9.439e-3
1.456,   9.759e-3
1.457,   9.965e-3
1.458,   1.007e-2
1.459,   1.007e-2
1.460,   1.007e-2
1.461,   1.007e-2
1.462,   1.007e-2
1.463,   1.007e-2
1.464,   1.007e-2
1.465,   1.007e-2
1.466,   1.007e-2
1.467,   1.007e-2
1.468,   1.007e-2
1.469,   1.007e-2
1.470,   1.007e-2
1.471,   1.007e-2