File: Experimental Records and Raw Data/batch5/final500/B5_BEST_500_#1_High_Quality(#23)-219mV.txt
June 8, 2023   22:04:10
Linear Sweep Voltammetry
File: d:\current work\al_oer\electrochemical test data\batch 5\500\B5_BEST_500_#1_High_Quality(#23)-219mV.txt
Data Source:  Experiment
Instrument Model:  CHI660E
Header:
Note:

Init E (V) = 0.894

Final E (V) = 1.494

Scan Rate (V/s) = 0.010
Sample Interval (V) = 0.001
Quiet Time (sec) = 2
Sensitivity (A/V) = 0.001
Comp R (ohm) = 4.3

Results:

Channel 1:

Potential/V, Current/A
0.894,   2.223e-4
0.895,   2.654e-4
0.896,   2.705e-4
0.897,   2.721e-4
0.898,   2.765e-4
0.899,   2.848e-4
0.900,   2.825e-4
0.901,   2.752e-4
0.902,   2.753e-4
0.903,   2.782e-4
0.904,   2.816e-4
0.905,   2.763e-4
0.906,   2.682e-4
0.907,   2.685e-4
0.908,   2.744e-4
0.909,   2.759e-4
0.910,   2.687e-4
0.911,   2.611e-4
0.912,   2.638e-4
0.913,   2.706e-4
0.914,   2.684e-4
0.915,   2.600e-4
0.916,   2.566e-4
0.917,   2.587e-4
0.918,   2.648e-4
0.919,   2.596e-4
0.920,   2.516e-4
0.921,   2.522e-4
0.922,   2.551e-4
0.923,   2.590e-4
0.924,   2.519e-4
0.925,   2.448e-4
0.926,   2.483e-4
0.927,   2.530e-4
0.928,   2.539e-4
0.929,   2.445e-4
0.930,   2.414e-4
0.931,   2.434e-4
0.932,   2.489e-4
0.933,   2.460e-4
0.934,   2.391e-4
0.935,   2.369e-4
0.936,   2.413e-4
0.937,   2.458e-4
0.938,   2.414e-4
0.939,   2.326e-4
0.940,   2.350e-4
0.941,   2.389e-4
0.942,   2.407e-4
0.943,   2.340e-4
0.944,   2.276e-4
0.945,   2.313e-4
0.946,   2.361e-4
0.947,   2.354e-4
0.948,   2.287e-4
0.949,   2.266e-4
0.950,   2.293e-4
0.951,   2.344e-4
0.952,   2.306e-4
0.953,   2.260e-4
0.954,   2.254e-4
0.955,   2.269e-4
0.956,   2.299e-4
0.957,   2.257e-4
0.958,   2.208e-4
0.959,   2.217e-4
0.960,   2.258e-4
0.961,   2.276e-4
0.962,   2.212e-4
0.963,   2.182e-4
0.964,   2.205e-4
0.965,   2.253e-4
0.966,   2.240e-4
0.967,   2.179e-4
0.968,   2.162e-4
0.969,   2.182e-4
0.970,   2.230e-4
0.971,   2.188e-4
0.972,   2.139e-4
0.973,   2.151e-4
0.974,   2.176e-4
0.975,   2.195e-4
0.976,   2.168e-4
0.977,   2.103e-4
0.978,   2.135e-4
0.979,   2.165e-4
0.980,   2.174e-4
0.981,   2.120e-4
0.982,   2.105e-4
0.983,   2.106e-4
0.984,   2.160e-4
0.985,   2.145e-4
0.986,   2.094e-4
0.987,   2.094e-4
0.988,   2.093e-4
0.989,   2.151e-4
0.990,   2.113e-4
0.991,   2.062e-4
0.992,   2.069e-4
0.993,   2.108e-4
0.994,   2.123e-4
0.995,   2.082e-4
0.996,   2.046e-4
0.997,   2.053e-4
0.998,   2.105e-4
0.999,   2.105e-4
1.000,   2.058e-4
1.001,   2.037e-4
1.002,   2.051e-4
1.003,   2.100e-4
1.004,   2.083e-4
1.005,   2.032e-4
1.006,   2.030e-4
1.007,   2.035e-4
1.008,   2.085e-4
1.009,   2.053e-4
1.010,   2.018e-4
1.011,   2.023e-4
1.012,   2.048e-4
1.013,   2.060e-4
1.014,   2.021e-4
1.015,   1.988e-4
1.016,   2.004e-4
1.017,   2.054e-4
1.018,   2.055e-4
1.019,   2.009e-4
1.020,   1.980e-4
1.021,   2.013e-4
1.022,   2.051e-4
1.023,   2.021e-4
1.024,   1.977e-4
1.025,   1.989e-4
1.026,   2.014e-4
1.027,   2.044e-4
1.028,   2.000e-4
1.029,   1.961e-4
1.030,   1.993e-4
1.031,   2.031e-4
1.032,   2.015e-4
1.033,   1.981e-4
1.034,   1.964e-4
1.035,   1.984e-4
1.036,   2.024e-4
1.037,   2.003e-4
1.038,   1.975e-4
1.039,   1.956e-4
1.040,   1.976e-4
1.041,   2.033e-4
1.042,   1.980e-4
1.043,   1.954e-4
1.044,   1.959e-4
1.045,   1.993e-4
1.046,   2.011e-4
1.047,   1.971e-4
1.048,   1.947e-4
1.049,   1.960e-4
1.050,   1.994e-4
1.051,   1.998e-4
1.052,   1.974e-4
1.053,   1.937e-4
1.054,   1.945e-4
1.055,   2.000e-4
1.056,   1.986e-4
1.057,   1.950e-4
1.058,   1.934e-4
1.059,   1.963e-4
1.060,   2.009e-4
1.061,   1.967e-4
1.062,   1.939e-4
1.063,   1.936e-4
1.064,   1.981e-4
1.065,   2.002e-4
1.066,   1.975e-4
1.067,   1.938e-4
1.068,   1.940e-4
1.069,   1.987e-4
1.070,   2.005e-4
1.071,   1.937e-4
1.072,   1.915e-4
1.073,   1.952e-4
1.074,   2.003e-4
1.075,   1.977e-4
1.076,   1.943e-4
1.077,   1.931e-4
1.078,   1.968e-4
1.079,   2.002e-4
1.080,   1.964e-4
1.081,   1.923e-4
1.082,   1.947e-4
1.083,   2.001e-4
1.084,   2.004e-4
1.085,   1.958e-4
1.086,   1.925e-4
1.087,   1.949e-4
1.088,   2.002e-4
1.089,   1.996e-4
1.090,   1.939e-4
1.091,   1.932e-4
1.092,   1.961e-4
1.093,   2.014e-4
1.094,   1.982e-4
1.095,   1.941e-4
1.096,   1.941e-4
1.097,   1.981e-4
1.098,   2.014e-4
1.099,   1.975e-4
1.100,   1.941e-4
1.101,   1.951e-4
1.102,   1.999e-4
1.103,   2.010e-4
1.104,   1.968e-4
1.105,   1.942e-4
1.106,   1.956e-4
1.107,   2.019e-4
1.108,   2.005e-4
1.109,   1.965e-4
1.110,   1.951e-4
1.111,   1.967e-4
1.112,   2.015e-4
1.113,   1.991e-4
1.114,   1.972e-4
1.115,   1.953e-4
1.116,   1.993e-4
1.117,   2.030e-4
1.118,   1.992e-4
1.119,   1.960e-4
1.120,   1.970e-4
1.121,   2.030e-4
1.122,   2.030e-4
1.123,   1.988e-4
1.124,   1.966e-4
1.125,   1.986e-4
1.126,   2.044e-4
1.127,   2.026e-4
1.128,   1.986e-4
1.129,   1.970e-4
1.130,   1.994e-4
1.131,   2.080e-4
1.132,   2.030e-4
1.133,   1.971e-4
1.134,   1.981e-4
1.135,   2.031e-4
1.136,   2.069e-4
1.137,   2.029e-4
1.138,   1.994e-4
1.139,   2.015e-4
1.140,   2.071e-4
1.141,   2.071e-4
1.142,   2.020e-4
1.143,   1.996e-4
1.144,   2.020e-4
1.145,   2.096e-4
1.146,   2.073e-4
1.147,   2.013e-4
1.148,   2.010e-4
1.149,   2.052e-4
1.150,   2.109e-4
1.151,   2.063e-4
1.152,   2.018e-4
1.153,   2.027e-4
1.154,   2.091e-4
1.155,   2.118e-4
1.156,   2.063e-4
1.157,   2.021e-4
1.158,   2.051e-4
1.159,   2.124e-4
1.160,   2.109e-4
1.161,   2.063e-4
1.162,   2.029e-4
1.163,   2.077e-4
1.164,   2.150e-4
1.165,   2.103e-4
1.166,   2.069e-4
1.167,   2.055e-4
1.168,   2.097e-4
1.169,   2.178e-4
1.170,   2.100e-4
1.171,   2.072e-4
1.172,   2.088e-4
1.173,   2.142e-4
1.174,   2.179e-4
1.175,   2.121e-4
1.176,   2.083e-4
1.177,   2.086e-4
1.178,   2.180e-4
1.179,   2.163e-4
1.180,   2.121e-4
1.181,   2.119e-4
1.182,   2.123e-4
1.183,   2.214e-4
1.184,   2.173e-4
1.185,   2.131e-4
1.186,   2.116e-4
1.187,   2.162e-4
1.188,   2.226e-4
1.189,   2.168e-4
1.190,   2.138e-4
1.191,   2.141e-4
1.192,   2.199e-4
1.193,   2.217e-4
1.194,   2.170e-4
1.195,   2.148e-4
1.196,   2.173e-4
1.197,   2.251e-4
1.198,   2.231e-4
1.199,   2.167e-4
1.200,   2.167e-4
1.201,   2.202e-4
1.202,   2.277e-4
1.203,   2.225e-4
1.204,   2.193e-4
1.205,   2.200e-4
1.206,   2.223e-4
1.207,   2.298e-4
1.208,   2.234e-4
1.209,   2.194e-4
1.210,   2.218e-4
1.211,   2.297e-4
1.212,   2.298e-4
1.213,   2.250e-4
1.214,   2.210e-4
1.215,   2.244e-4
1.216,   2.339e-4
1.217,   2.301e-4
1.218,   2.246e-4
1.219,   2.250e-4
1.220,   2.282e-4
1.221,   2.365e-4
1.222,   2.310e-4
1.223,   2.277e-4
1.224,   2.289e-4
1.225,   2.336e-4
1.226,   2.367e-4
1.227,   2.330e-4
1.228,   2.259e-4
1.229,   2.304e-4
1.230,   2.406e-4
1.231,   2.390e-4
1.232,   2.303e-4
1.233,   2.301e-4
1.234,   2.338e-4
1.235,   2.429e-4
1.236,   2.391e-4
1.237,   2.343e-4
1.238,   2.325e-4
1.239,   2.380e-4
1.240,   2.465e-4
1.241,   2.394e-4
1.242,   2.347e-4
1.243,   2.375e-4
1.244,   2.461e-4
1.245,   2.462e-4
1.246,   2.410e-4
1.247,   2.384e-4
1.248,   2.421e-4
1.249,   2.481e-4
1.250,   2.468e-4
1.251,   2.406e-4
1.252,   2.396e-4
1.253,   2.476e-4
1.254,   2.553e-4
1.255,   2.490e-4
1.256,   2.421e-4
1.257,   2.447e-4
1.258,   2.505e-4
1.259,   2.566e-4
1.260,   2.493e-4
1.261,   2.445e-4
1.262,   2.488e-4
1.263,   2.572e-4
1.264,   2.568e-4
1.265,   2.502e-4
1.266,   2.484e-4
1.267,   2.544e-4
1.268,   2.616e-4
1.269,   2.612e-4
1.270,   2.529e-4
1.271,   2.525e-4
1.272,   2.585e-4
1.273,   2.681e-4
1.274,   2.608e-4
1.275,   2.539e-4
1.276,   2.578e-4
1.277,   2.645e-4
1.278,   2.709e-4
1.279,   2.616e-4
1.280,   2.563e-4
1.281,   2.629e-4
1.282,   2.719e-4
1.283,   2.727e-4
1.284,   2.626e-4
1.285,   2.609e-4
1.286,   2.700e-4
1.287,   2.786e-4
1.288,   2.727e-4
1.289,   2.660e-4
1.290,   2.674e-4
1.291,   2.745e-4
1.292,   2.837e-4
1.293,   2.742e-4
1.294,   2.676e-4
1.295,   2.721e-4
1.296,   2.829e-4
1.297,   2.870e-4
1.298,   2.759e-4
1.299,   2.712e-4
1.300,   2.794e-4
1.301,   2.898e-4
1.302,   2.893e-4
1.303,   2.756e-4
1.304,   2.773e-4
1.305,   2.853e-4
1.306,   2.982e-4
1.307,   2.902e-4
1.308,   2.819e-4
1.309,   2.831e-4
1.310,   2.933e-4
1.311,   3.024e-4
1.312,   2.930e-4
1.313,   2.849e-4
1.314,   2.904e-4
1.315,   3.033e-4
1.316,   3.089e-4
1.317,   2.957e-4
1.318,   2.916e-4
1.319,   2.992e-4
1.320,   3.092e-4
1.321,   3.090e-4
1.322,   2.994e-4
1.323,   2.993e-4
1.324,   3.055e-4
1.325,   3.213e-4
1.326,   3.102e-4
1.327,   3.019e-4
1.328,   3.050e-4
1.329,   3.164e-4
1.330,   3.272e-4
1.331,   3.129e-4
1.332,   3.063e-4
1.333,   3.164e-4
1.334,   3.259e-4
1.335,   3.320e-4
1.336,   3.152e-4
1.337,   3.162e-4
1.338,   3.255e-4
1.339,   3.400e-4
1.340,   3.346e-4
1.341,   3.208e-4
1.342,   3.209e-4
1.343,   3.335e-4
1.344,   3.505e-4
1.345,   3.369e-4
1.346,   3.280e-4
1.347,   3.334e-4
1.348,   3.462e-4
1.349,   3.584e-4
1.350,   3.408e-4
1.351,   3.352e-4
1.352,   3.432e-4
1.353,   3.595e-4
1.354,   3.635e-4
1.355,   3.468e-4
1.356,   3.448e-4
1.357,   3.548e-4
1.358,   3.792e-4
1.359,   3.706e-4
1.360,   3.547e-4
1.361,   3.564e-4
1.362,   3.674e-4
1.363,   3.904e-4
1.364,   3.746e-4
1.365,   3.623e-4
1.366,   3.704e-4
1.367,   3.864e-4
1.368,   4.006e-4
1.369,   3.823e-4
1.370,   3.751e-4
1.371,   3.824e-4
1.372,   4.065e-4
1.373,   4.094e-4
1.374,   3.902e-4
1.375,   3.882e-4
1.376,   4.023e-4
1.377,   4.303e-4
1.378,   4.196e-4
1.379,   4.044e-4
1.380,   4.075e-4
1.381,   4.255e-4
1.382,   4.489e-4
1.383,   4.308e-4
1.384,   4.193e-4
1.385,   4.311e-4
1.386,   4.526e-4
1.387,   4.657e-4
1.388,   4.498e-4
1.389,   4.415e-4
1.390,   4.532e-4
1.391,   4.830e-4
1.392,   4.867e-4
1.393,   4.668e-4
1.394,   4.651e-4
1.395,   4.833e-4
1.396,   5.201e-4
1.397,   5.100e-4
1.398,   4.921e-4
1.399,   4.990e-4
1.400,   5.264e-4
1.401,   5.527e-4
1.402,   5.343e-4
1.403,   5.244e-4
1.404,   5.376e-4
1.405,   5.695e-4
1.406,   5.913e-4
1.407,   5.677e-4
1.408,   5.643e-4
1.409,   5.868e-4
1.410,   6.266e-4
1.411,   6.298e-4
1.412,   6.087e-4
1.413,   6.174e-4
1.414,   6.489e-4
1.415,   6.915e-4
1.416,   6.788e-4
1.417,   6.686e-4
1.418,   6.887e-4
1.419,   7.240e-4
1.420,   7.658e-4
1.421,   7.478e-4
1.422,   7.467e-4
1.423,   7.752e-4
1.424,   8.307e-4
1.425,   8.508e-4
1.426,   8.336e-4
1.427,   8.477e-4
1.428,   8.885e-4
1.429,   9.610e-4
1.430,   9.663e-4
1.431,   9.637e-4
1.432,   9.853e-4
1.433,   1.037e-3
1.434,   1.118e-3
1.435,   1.123e-3
1.436,   1.130e-3
1.437,   1.173e-3
1.438,   1.243e-3
1.439,   1.333e-3
1.440,   1.322e-3
1.441,   1.350e-3
1.442,   1.402e-3
1.443,   1.514e-3
1.444,   1.601e-3
1.445,   1.603e-3
1.446,   1.640e-3
1.447,   1.711e-3
1.448,   1.876e-3
1.449,   1.933e-3
1.450,   1.957e-3
1.451,   2.026e-3
1.452,   2.138e-3
1.453,   2.336e-3
1.454,   2.368e-3
1.455,   2.418e-3
1.456,   2.519e-3
1.457,   2.703e-3
1.458,   2.885e-3
1.459,   2.917e-3
1.460,   2.991e-3
1.461,   3.110e-3
1.462,   3.378e-3
1.463,   3.560e-3
1.464,   3.620e-3
1.465,   3.709e-3
1.466,   3.882e-3
1.467,   4.234e-3
1.468,   4.352e-3
1.469,   4.425e-3
1.470,   4.560e-3
1.471,   4.795e-3
1.472,   5.222e-3
1.473,   5.308e-3
1.474,   5.435e-3
1.475,   5.592e-3
1.476,   5.971e-3
1.477,   6.423e-3
1.478,   6.510e-3
1.479,   6.579e-3
1.480,   6.762e-3
1.481,   7.212e-3
1.482,   7.601e-3
1.483,   7.730e-3
1.484,   7.797e-3
1.485,   8.090e-3
1.486,   8.593e-3
1.487,   8.854e-3
1.488,   8.925e-3
1.489,   8.990e-3
1.490,   9.133e-3
1.491,   9.486e-3
1.492,   9.643e-3
1.493,   9.583e-3
1.494,   9.663e-3