File: Experimental Records and Raw Data/batch5/final500/B5_BEST_500_#1_Full(#11)-209mV.txt
June 9, 2023   11:37:47
Linear Sweep Voltammetry
File: d:\current work\al_oer\electrochemical test data\batch 5\500\B5_BEST_500_#1_Full(#11)-209mV.txt
Data Source:  Experiment
Instrument Model:  CHI660E
Header:
Note:

Init E (V) = 0.900

Final E (V) = 1.498

Scan Rate (V/s) = 0.010
Sample Interval (V) = 0.001
Quiet Time (sec) = 2
Sensitivity (A/V) = 0.001
Comp R (ohm) = 5.2

Results:

Channel 1:

Potential/V, Current/A
0.900,   2.226e-4
0.901,   2.562e-4
0.902,   2.602e-4
0.903,   2.527e-4
0.904,   2.472e-4
0.905,   2.523e-4
0.906,   2.590e-4
0.907,   2.571e-4
0.908,   2.493e-4
0.909,   2.434e-4
0.910,   2.473e-4
0.911,   2.533e-4
0.912,   2.535e-4
0.913,   2.433e-4
0.914,   2.383e-4
0.915,   2.423e-4
0.916,   2.477e-4
0.917,   2.470e-4
0.918,   2.380e-4
0.919,   2.328e-4
0.920,   2.385e-4
0.921,   2.411e-4
0.922,   2.421e-4
0.923,   2.339e-4
0.924,   2.290e-4
0.925,   2.329e-4
0.926,   2.368e-4
0.927,   2.365e-4
0.928,   2.283e-4
0.929,   2.244e-4
0.930,   2.300e-4
0.931,   2.339e-4
0.932,   2.321e-4
0.933,   2.248e-4
0.934,   2.216e-4
0.935,   2.270e-4
0.936,   2.279e-4
0.937,   2.304e-4
0.938,   2.186e-4
0.939,   2.189e-4
0.940,   2.224e-4
0.941,   2.250e-4
0.942,   2.240e-4
0.943,   2.180e-4
0.944,   2.138e-4
0.945,   2.183e-4
0.946,   2.230e-4
0.947,   2.244e-4
0.948,   2.166e-4
0.949,   2.095e-4
0.950,   2.139e-4
0.951,   2.200e-4
0.952,   2.215e-4
0.953,   2.113e-4
0.954,   2.091e-4
0.955,   2.112e-4
0.956,   2.173e-4
0.957,   2.172e-4
0.958,   2.098e-4
0.959,   2.074e-4
0.960,   2.083e-4
0.961,   2.144e-4
0.962,   2.144e-4
0.963,   2.089e-4
0.964,   2.035e-4
0.965,   2.068e-4
0.966,   2.124e-4
0.967,   2.148e-4
0.968,   2.073e-4
0.969,   2.026e-4
0.970,   2.062e-4
0.971,   2.091e-4
0.972,   2.127e-4
0.973,   2.038e-4
0.974,   2.023e-4
0.975,   2.021e-4
0.976,   2.071e-4
0.977,   2.089e-4
0.978,   2.019e-4
0.979,   2.010e-4
0.980,   2.027e-4
0.981,   2.073e-4
0.982,   2.071e-4
0.983,   1.997e-4
0.984,   1.978e-4
0.985,   2.013e-4
0.986,   2.021e-4
0.987,   2.062e-4
0.988,   1.983e-4
0.989,   1.976e-4
0.990,   1.993e-4
0.991,   2.013e-4
0.992,   2.053e-4
0.993,   1.971e-4
0.994,   1.963e-4
0.995,   1.987e-4
0.996,   1.997e-4
0.997,   2.058e-4
0.998,   1.956e-4
0.999,   1.941e-4
1.000,   1.978e-4
1.001,   2.000e-4
1.002,   2.031e-4
1.003,   1.951e-4
1.004,   1.939e-4
1.005,   1.953e-4
1.006,   1.980e-4
1.007,   2.029e-4
1.008,   1.928e-4
1.009,   1.923e-4
1.010,   1.957e-4
1.011,   1.977e-4
1.012,   1.997e-4
1.013,   1.937e-4
1.014,   1.934e-4
1.015,   1.942e-4
1.016,   1.961e-4
1.017,   1.989e-4
1.018,   1.936e-4
1.019,   1.922e-4
1.020,   1.936e-4
1.021,   1.957e-4
1.022,   1.986e-4
1.023,   1.934e-4
1.024,   1.918e-4
1.025,   1.935e-4
1.026,   1.946e-4
1.027,   1.991e-4
1.028,   1.926e-4
1.029,   1.907e-4
1.030,   1.928e-4
1.031,   1.954e-4
1.032,   1.973e-4
1.033,   1.924e-4
1.034,   1.910e-4
1.035,   1.919e-4
1.036,   1.945e-4
1.037,   1.971e-4
1.038,   1.922e-4
1.039,   1.906e-4
1.040,   1.907e-4
1.041,   1.953e-4
1.042,   1.990e-4
1.043,   1.919e-4
1.044,   1.896e-4
1.045,   1.917e-4
1.046,   1.960e-4
1.047,   1.963e-4
1.048,   1.925e-4
1.049,   1.901e-4
1.050,   1.928e-4
1.051,   1.948e-4
1.052,   1.965e-4
1.053,   1.939e-4
1.054,   1.892e-4
1.055,   1.916e-4
1.056,   1.954e-4
1.057,   1.961e-4
1.058,   1.925e-4
1.059,   1.896e-4
1.060,   1.918e-4
1.061,   1.952e-4
1.062,   1.977e-4
1.063,   1.936e-4
1.064,   1.896e-4
1.065,   1.936e-4
1.066,   1.959e-4
1.067,   1.984e-4
1.068,   1.931e-4
1.069,   1.909e-4
1.070,   1.927e-4
1.071,   1.966e-4
1.072,   1.988e-4
1.073,   1.939e-4
1.074,   1.898e-4
1.075,   1.941e-4
1.076,   1.966e-4
1.077,   1.993e-4
1.078,   1.942e-4
1.079,   1.904e-4
1.080,   1.956e-4
1.081,   1.969e-4
1.082,   2.006e-4
1.083,   1.953e-4
1.084,   1.932e-4
1.085,   1.962e-4
1.086,   1.974e-4
1.087,   2.020e-4
1.088,   1.961e-4
1.089,   1.943e-4
1.090,   1.960e-4
1.091,   1.983e-4
1.092,   2.031e-4
1.093,   1.974e-4
1.094,   1.949e-4
1.095,   1.957e-4
1.096,   1.987e-4
1.097,   2.052e-4
1.098,   1.977e-4
1.099,   1.967e-4
1.100,   1.990e-4
1.101,   2.006e-4
1.102,   2.042e-4
1.103,   1.996e-4
1.104,   1.966e-4
1.105,   1.991e-4
1.106,   2.022e-4
1.107,   2.066e-4
1.108,   2.017e-4
1.109,   1.971e-4
1.110,   2.015e-4
1.111,   2.045e-4
1.112,   2.072e-4
1.113,   2.034e-4
1.114,   2.003e-4
1.115,   2.013e-4
1.116,   2.054e-4
1.117,   2.091e-4
1.118,   2.039e-4
1.119,   2.017e-4
1.120,   2.046e-4
1.121,   2.069e-4
1.122,   2.115e-4
1.123,   2.057e-4
1.124,   2.032e-4
1.125,   2.059e-4
1.126,   2.093e-4
1.127,   2.110e-4
1.128,   2.080e-4
1.129,   2.053e-4
1.130,   2.090e-4
1.131,   2.118e-4
1.132,   2.147e-4
1.133,   2.110e-4
1.134,   2.042e-4
1.135,   2.098e-4
1.136,   2.122e-4
1.137,   2.171e-4
1.138,   2.116e-4
1.139,   2.074e-4
1.140,   2.113e-4
1.141,   2.154e-4
1.142,   2.225e-4
1.143,   2.143e-4
1.144,   2.070e-4
1.145,   2.124e-4
1.146,   2.173e-4
1.147,   2.221e-4
1.148,   2.169e-4
1.149,   2.117e-4
1.150,   2.141e-4
1.151,   2.192e-4
1.152,   2.253e-4
1.153,   2.192e-4
1.154,   2.118e-4
1.155,   2.177e-4
1.156,   2.231e-4
1.157,   2.277e-4
1.158,   2.190e-4
1.159,   2.144e-4
1.160,   2.197e-4
1.161,   2.225e-4
1.162,   2.341e-4
1.163,   2.194e-4
1.164,   2.163e-4
1.165,   2.212e-4
1.166,   2.253e-4
1.167,   2.333e-4
1.168,   2.233e-4
1.169,   2.198e-4
1.170,   2.225e-4
1.171,   2.296e-4
1.172,   2.352e-4
1.173,   2.265e-4
1.174,   2.216e-4
1.175,   2.247e-4
1.176,   2.308e-4
1.177,   2.400e-4
1.178,   2.317e-4
1.179,   2.232e-4
1.180,   2.283e-4
1.181,   2.323e-4
1.182,   2.403e-4
1.183,   2.334e-4
1.184,   2.273e-4
1.185,   2.301e-4
1.186,   2.358e-4
1.187,   2.437e-4
1.188,   2.356e-4
1.189,   2.294e-4
1.190,   2.339e-4
1.191,   2.397e-4
1.192,   2.439e-4
1.193,   2.377e-4
1.194,   2.326e-4
1.195,   2.374e-4
1.196,   2.418e-4
1.197,   2.479e-4
1.198,   2.407e-4
1.199,   2.362e-4
1.200,   2.397e-4
1.201,   2.472e-4
1.202,   2.519e-4
1.203,   2.436e-4
1.204,   2.380e-4
1.205,   2.428e-4
1.206,   2.493e-4
1.207,   2.556e-4
1.208,   2.456e-4
1.209,   2.413e-4
1.210,   2.447e-4
1.211,   2.521e-4
1.212,   2.603e-4
1.213,   2.510e-4
1.214,   2.438e-4
1.215,   2.463e-4
1.216,   2.584e-4
1.217,   2.625e-4
1.218,   2.545e-4
1.219,   2.499e-4
1.220,   2.526e-4
1.221,   2.567e-4
1.222,   2.665e-4
1.223,   2.597e-4
1.224,   2.485e-4
1.225,   2.559e-4
1.226,   2.651e-4
1.227,   2.707e-4
1.228,   2.653e-4
1.229,   2.548e-4
1.230,   2.599e-4
1.231,   2.702e-4
1.232,   2.743e-4
1.233,   2.679e-4
1.234,   2.571e-4
1.235,   2.633e-4
1.236,   2.760e-4
1.237,   2.784e-4
1.238,   2.741e-4
1.239,   2.599e-4
1.240,   2.661e-4
1.241,   2.795e-4
1.242,   2.828e-4
1.243,   2.828e-4
1.244,   2.626e-4
1.245,   2.710e-4
1.246,   2.834e-4
1.247,   2.858e-4
1.248,   2.851e-4
1.249,   2.676e-4
1.250,   2.753e-4
1.251,   2.913e-4
1.252,   2.883e-4
1.253,   2.878e-4
1.254,   2.736e-4
1.255,   2.814e-4
1.256,   2.937e-4
1.257,   2.970e-4
1.258,   2.923e-4
1.259,   2.793e-4
1.260,   2.877e-4
1.261,   3.010e-4
1.262,   2.980e-4
1.263,   3.040e-4
1.264,   2.850e-4
1.265,   2.912e-4
1.266,   3.034e-4
1.267,   3.055e-4
1.268,   3.092e-4
1.269,   2.901e-4
1.270,   2.930e-4
1.271,   3.092e-4
1.272,   3.126e-4
1.273,   3.150e-4
1.274,   2.952e-4
1.275,   2.981e-4
1.276,   3.159e-4
1.277,   3.142e-4
1.278,   3.254e-4
1.279,   2.987e-4
1.280,   3.040e-4
1.281,   3.211e-4
1.282,   3.222e-4
1.283,   3.256e-4
1.284,   3.061e-4
1.285,   3.132e-4
1.286,   3.265e-4
1.287,   3.263e-4
1.288,   3.302e-4
1.289,   3.112e-4
1.290,   3.169e-4
1.291,   3.345e-4
1.292,   3.338e-4
1.293,   3.410e-4
1.294,   3.167e-4
1.295,   3.215e-4
1.296,   3.386e-4
1.297,   3.418e-4
1.298,   3.456e-4
1.299,   3.265e-4
1.300,   3.280e-4
1.301,   3.467e-4
1.302,   3.482e-4
1.303,   3.561e-4
1.304,   3.311e-4
1.305,   3.351e-4
1.306,   3.519e-4
1.307,   3.570e-4
1.308,   3.613e-4
1.309,   3.399e-4
1.310,   3.407e-4
1.311,   3.599e-4
1.312,   3.660e-4
1.313,   3.722e-4
1.314,   3.442e-4
1.315,   3.475e-4
1.316,   3.654e-4
1.317,   3.765e-4
1.318,   3.783e-4
1.319,   3.479e-4
1.320,   3.566e-4
1.321,   3.737e-4
1.322,   3.850e-4
1.323,   3.827e-4
1.324,   3.599e-4
1.325,   3.633e-4
1.326,   3.858e-4
1.327,   3.910e-4
1.328,   3.847e-4
1.329,   3.639e-4
1.330,   3.750e-4
1.331,   3.947e-4
1.332,   4.063e-4
1.333,   3.957e-4
1.334,   3.768e-4
1.335,   3.803e-4
1.336,   4.003e-4
1.337,   4.124e-4
1.338,   4.082e-4
1.339,   3.816e-4
1.340,   3.901e-4
1.341,   4.132e-4
1.342,   4.259e-4
1.343,   4.148e-4
1.344,   3.956e-4
1.345,   4.024e-4
1.346,   4.222e-4
1.347,   4.390e-4
1.348,   4.283e-4
1.349,   4.007e-4
1.350,   4.098e-4
1.351,   4.376e-4
1.352,   4.477e-4
1.353,   4.359e-4
1.354,   4.152e-4
1.355,   4.246e-4
1.356,   4.528e-4
1.357,   4.592e-4
1.358,   4.484e-4
1.359,   4.294e-4
1.360,   4.412e-4
1.361,   4.647e-4
1.362,   4.717e-4
1.363,   4.701e-4
1.364,   4.421e-4
1.365,   4.525e-4
1.366,   4.768e-4
1.367,   4.998e-4
1.368,   4.879e-4
1.369,   4.606e-4
1.370,   4.703e-4
1.371,   4.999e-4
1.372,   5.135e-4
1.373,   5.075e-4
1.374,   4.788e-4
1.375,   4.934e-4
1.376,   5.188e-4
1.377,   5.343e-4
1.378,   5.307e-4
1.379,   4.954e-4
1.380,   5.232e-4
1.381,   5.437e-4
1.382,   5.671e-4
1.383,   5.497e-4
1.384,   5.276e-4
1.385,   5.467e-4
1.386,   5.754e-4
1.387,   5.964e-4
1.388,   5.844e-4
1.389,   5.570e-4
1.390,   5.763e-4
1.391,   6.138e-4
1.392,   6.347e-4
1.393,   6.319e-4
1.394,   5.979e-4
1.395,   6.149e-4
1.396,   6.553e-4
1.397,   6.819e-4
1.398,   6.765e-4
1.399,   6.427e-4
1.400,   6.635e-4
1.401,   7.040e-4
1.402,   7.397e-4
1.403,   7.381e-4
1.404,   6.972e-4
1.405,   7.248e-4
1.406,   7.903e-4
1.407,   7.847e-4
1.408,   8.156e-4
1.409,   7.742e-4
1.410,   8.117e-4
1.411,   8.491e-4
1.412,   8.716e-4
1.413,   9.101e-4
1.414,   8.488e-4
1.415,   9.063e-4
1.416,   9.447e-4
1.417,   9.773e-4
1.418,   1.013e-3
1.419,   9.556e-4
1.420,   1.010e-3
1.421,   1.079e-3
1.422,   1.108e-3
1.423,   1.154e-3
1.424,   1.098e-3
1.425,   1.165e-3
1.426,   1.246e-3
1.427,   1.283e-3
1.428,   1.350e-3
1.429,   1.292e-3
1.430,   1.359e-3
1.431,   1.471e-3
1.432,   1.519e-3
1.433,   1.600e-3
1.434,   1.529e-3
1.435,   1.633e-3
1.436,   1.757e-3
1.437,   1.814e-3
1.438,   1.921e-3
1.439,   1.873e-3
1.440,   1.981e-3
1.441,   2.136e-3
1.442,   2.223e-3
1.443,   2.381e-3
1.444,   2.291e-3
1.445,   2.425e-3
1.446,   2.659e-3
1.447,   2.762e-3
1.448,   2.977e-3
1.449,   2.889e-3
1.450,   3.077e-3
1.451,   3.358e-3
1.452,   3.482e-3
1.453,   3.735e-3
1.454,   3.678e-3
1.455,   3.858e-3
1.456,   4.179e-3
1.457,   4.433e-3
1.458,   4.679e-3
1.459,   4.787e-3
1.460,   4.994e-3
1.461,   5.313e-3
1.462,   5.656e-3
1.463,   6.030e-3
1.464,   5.867e-3
1.465,   6.158e-3
1.466,   6.527e-3
1.467,   6.792e-3
1.468,   7.188e-3
1.469,   7.157e-3
1.470,   7.381e-3
1.471,   7.789e-3
1.472,   8.132e-3
1.473,   8.648e-3
1.474,   8.525e-3
1.475,   8.656e-3
1.476,   9.170e-3
1.477,   9.389e-3
1.478,   9.625e-3
1.479,   9.565e-3
1.480,   9.591e-3
1.481,   9.861e-3
1.482,   9.864e-3
1.483,   9.951e-3
1.484,   9.929e-3
1.485,   9.910e-3
1.486,   1.005e-2
1.487,   1.007e-2
1.488,   1.007e-2
1.489,   1.007e-2
1.490,   1.007e-2
1.491,   1.007e-2
1.492,   1.007e-2
1.493,   1.007e-2
1.494,   1.007e-2
1.495,   1.007e-2
1.496,   1.007e-2
1.497,   1.007e-2
1.498,   1.007e-2