File: Experimental Records and Raw Data/batch5/final500/B5_BEST_500_#1_High_Quality(#31)-213mV.txt
June 9, 2023   11:22:27
Linear Sweep Voltammetry
File: d:\current work\al_oer\electrochemical test data\batch 5\500\B5_BEST_500_#1_High_Quality(#31)-213mV.txt
Data Source:  Experiment
Instrument Model:  CHI660E
Header:
Note:

Init E (V) = 0.883

Final E (V) = 1.682

Scan Rate (V/s) = 0.010
Sample Interval (V) = 0.001
Quiet Time (sec) = 2
Sensitivity (A/V) = 0.001
Comp R (ohm) = 5.1

Results:

Channel 1:

Potential/V, Current/A
0.883,   2.368e-4
0.884,   2.588e-4
0.885,   2.602e-4
0.886,   2.668e-4
0.887,   2.653e-4
0.888,   2.621e-4
0.889,   2.662e-4
0.890,   2.625e-4
0.891,   2.591e-4
0.892,   2.623e-4
0.893,   2.571e-4
0.894,   2.554e-4
0.895,   2.568e-4
0.896,   2.510e-4
0.897,   2.507e-4
0.898,   2.517e-4
0.899,   2.461e-4
0.900,   2.472e-4
0.901,   2.462e-4
0.902,   2.415e-4
0.903,   2.421e-4
0.904,   2.419e-4
0.905,   2.368e-4
0.906,   2.386e-4
0.907,   2.371e-4
0.908,   2.322e-4
0.909,   2.357e-4
0.910,   2.322e-4
0.911,   2.282e-4
0.912,   2.313e-4
0.913,   2.279e-4
0.914,   2.249e-4
0.915,   2.276e-4
0.916,   2.234e-4
0.917,   2.222e-4
0.918,   2.247e-4
0.919,   2.190e-4
0.920,   2.187e-4
0.921,   2.201e-4
0.922,   2.155e-4
0.923,   2.170e-4
0.924,   2.169e-4
0.925,   2.124e-4
0.926,   2.145e-4
0.927,   2.132e-4
0.928,   2.098e-4
0.929,   2.120e-4
0.930,   2.111e-4
0.931,   2.073e-4
0.932,   2.086e-4
0.933,   2.073e-4
0.934,   2.051e-4
0.935,   2.066e-4
0.936,   2.044e-4
0.937,   2.026e-4
0.938,   2.043e-4
0.939,   2.016e-4
0.940,   2.007e-4
0.941,   2.030e-4
0.942,   1.989e-4
0.943,   1.988e-4
0.944,   1.998e-4
0.945,   1.968e-4
0.946,   1.970e-4
0.947,   1.979e-4
0.948,   1.945e-4
0.949,   1.959e-4
0.950,   1.964e-4
0.951,   1.924e-4
0.952,   1.934e-4
0.953,   1.943e-4
0.954,   1.909e-4
0.955,   1.921e-4
0.956,   1.917e-4
0.957,   1.894e-4
0.958,   1.910e-4
0.959,   1.896e-4
0.960,   1.884e-4
0.961,   1.896e-4
0.962,   1.877e-4
0.963,   1.875e-4
0.964,   1.885e-4
0.965,   1.854e-4
0.966,   1.864e-4
0.967,   1.869e-4
0.968,   1.840e-4
0.969,   1.845e-4
0.970,   1.849e-4
0.971,   1.826e-4
0.972,   1.834e-4
0.973,   1.839e-4
0.974,   1.816e-4
0.975,   1.828e-4
0.976,   1.826e-4
0.977,   1.803e-4
0.978,   1.814e-4
0.979,   1.815e-4
0.980,   1.792e-4
0.981,   1.815e-4
0.982,   1.801e-4
0.983,   1.780e-4
0.984,   1.794e-4
0.985,   1.783e-4
0.986,   1.779e-4
0.987,   1.786e-4
0.988,   1.768e-4
0.989,   1.766e-4
0.990,   1.779e-4
0.991,   1.757e-4
0.992,   1.766e-4
0.993,   1.767e-4
0.994,   1.759e-4
0.995,   1.753e-4
0.996,   1.752e-4
0.997,   1.737e-4
0.998,   1.752e-4
0.999,   1.749e-4
1.000,   1.732e-4
1.001,   1.744e-4
1.002,   1.738e-4
1.003,   1.727e-4
1.004,   1.738e-4
1.005,   1.733e-4
1.006,   1.718e-4
1.007,   1.738e-4
1.008,   1.720e-4
1.009,   1.718e-4
1.010,   1.727e-4
1.011,   1.717e-4
1.012,   1.708e-4
1.013,   1.721e-4
1.014,   1.700e-4
1.015,   1.707e-4
1.016,   1.723e-4
1.017,   1.691e-4
1.018,   1.704e-4
1.019,   1.720e-4
1.020,   1.691e-4
1.021,   1.700e-4
1.022,   1.705e-4
1.023,   1.685e-4
1.024,   1.702e-4
1.025,   1.701e-4
1.026,   1.682e-4
1.027,   1.698e-4
1.028,   1.696e-4
1.029,   1.684e-4
1.030,   1.697e-4
1.031,   1.686e-4
1.032,   1.680e-4
1.033,   1.697e-4
1.034,   1.679e-4
1.035,   1.679e-4
1.036,   1.697e-4
1.037,   1.676e-4
1.038,   1.681e-4
1.039,   1.695e-4
1.040,   1.672e-4
1.041,   1.684e-4
1.042,   1.691e-4
1.043,   1.674e-4
1.044,   1.679e-4
1.045,   1.688e-4
1.046,   1.666e-4
1.047,   1.679e-4
1.048,   1.688e-4
1.049,   1.669e-4
1.050,   1.689e-4
1.051,   1.680e-4
1.052,   1.667e-4
1.053,   1.684e-4
1.054,   1.679e-4
1.055,   1.675e-4
1.056,   1.689e-4
1.057,   1.672e-4
1.058,   1.681e-4
1.059,   1.685e-4
1.060,   1.670e-4
1.061,   1.679e-4
1.062,   1.689e-4
1.063,   1.674e-4
1.064,   1.693e-4
1.065,   1.692e-4
1.066,   1.677e-4
1.067,   1.685e-4
1.068,   1.684e-4
1.069,   1.678e-4
1.070,   1.687e-4
1.071,   1.701e-4
1.072,   1.679e-4
1.073,   1.692e-4
1.074,   1.696e-4
1.075,   1.683e-4
1.076,   1.688e-4
1.077,   1.693e-4
1.078,   1.700e-4
1.079,   1.707e-4
1.080,   1.705e-4
1.081,   1.701e-4
1.082,   1.703e-4
1.083,   1.711e-4
1.084,   1.704e-4
1.085,   1.702e-4
1.086,   1.714e-4
1.087,   1.705e-4
1.088,   1.706e-4
1.089,   1.725e-4
1.090,   1.712e-4
1.091,   1.714e-4
1.092,   1.725e-4
1.093,   1.704e-4
1.094,   1.726e-4
1.095,   1.727e-4
1.096,   1.722e-4
1.097,   1.733e-4
1.098,   1.734e-4
1.099,   1.728e-4
1.100,   1.742e-4
1.101,   1.747e-4
1.102,   1.732e-4
1.103,   1.752e-4
1.104,   1.749e-4
1.105,   1.739e-4
1.106,   1.759e-4
1.107,   1.751e-4
1.108,   1.751e-4
1.109,   1.769e-4
1.110,   1.761e-4
1.111,   1.752e-4
1.112,   1.778e-4
1.113,   1.756e-4
1.114,   1.767e-4
1.115,   1.782e-4
1.116,   1.771e-4
1.117,   1.775e-4
1.118,   1.792e-4
1.119,   1.773e-4
1.120,   1.781e-4
1.121,   1.787e-4
1.122,   1.785e-4
1.123,   1.794e-4
1.124,   1.791e-4
1.125,   1.788e-4
1.126,   1.807e-4
1.127,   1.794e-4
1.128,   1.792e-4
1.129,   1.809e-4
1.130,   1.800e-4
1.131,   1.800e-4
1.132,   1.812e-4
1.133,   1.804e-4
1.134,   1.815e-4
1.135,   1.823e-4
1.136,   1.800e-4
1.137,   1.807e-4
1.138,   1.823e-4
1.139,   1.815e-4
1.140,   1.821e-4
1.141,   1.824e-4
1.142,   1.824e-4
1.143,   1.826e-4
1.144,   1.834e-4
1.145,   1.829e-4
1.146,   1.834e-4
1.147,   1.838e-4
1.148,   1.840e-4
1.149,   1.846e-4
1.150,   1.843e-4
1.151,   1.845e-4
1.152,   1.848e-4
1.153,   1.854e-4
1.154,   1.857e-4
1.155,   1.860e-4
1.156,   1.855e-4
1.157,   1.860e-4
1.158,   1.870e-4
1.159,   1.873e-4
1.160,   1.878e-4
1.161,   1.874e-4
1.162,   1.868e-4
1.163,   1.876e-4
1.164,   1.888e-4
1.165,   1.890e-4
1.166,   1.877e-4
1.167,   1.901e-4
1.168,   1.890e-4
1.169,   1.907e-4
1.170,   1.905e-4
1.171,   1.900e-4
1.172,   1.909e-4
1.173,   1.916e-4
1.174,   1.914e-4
1.175,   1.921e-4
1.176,   1.933e-4
1.177,   1.925e-4
1.178,   1.933e-4
1.179,   1.934e-4
1.180,   1.926e-4
1.181,   1.958e-4
1.182,   1.944e-4
1.183,   1.938e-4
1.184,   1.965e-4
1.185,   1.956e-4
1.186,   1.957e-4
1.187,   1.973e-4
1.188,   1.967e-4
1.189,   1.965e-4
1.190,   1.989e-4
1.191,   1.978e-4
1.192,   1.994e-4
1.193,   2.003e-4
1.194,   1.978e-4
1.195,   2.012e-4
1.196,   2.006e-4
1.197,   2.004e-4
1.198,   2.025e-4
1.199,   2.022e-4
1.200,   2.012e-4
1.201,   2.028e-4
1.202,   2.030e-4
1.203,   2.024e-4
1.204,   2.049e-4
1.205,   2.047e-4
1.206,   2.038e-4
1.207,   2.067e-4
1.208,   2.061e-4
1.209,   2.064e-4
1.210,   2.076e-4
1.211,   2.071e-4
1.212,   2.089e-4
1.213,   2.102e-4
1.214,   2.090e-4
1.215,   2.099e-4
1.216,   2.110e-4
1.217,   2.101e-4
1.218,   2.130e-4
1.219,   2.112e-4
1.220,   2.113e-4
1.221,   2.135e-4
1.222,   2.135e-4
1.223,   2.127e-4
1.224,   2.150e-4
1.225,   2.154e-4
1.226,   2.141e-4
1.227,   2.159e-4
1.228,   2.168e-4
1.229,   2.171e-4
1.230,   2.166e-4
1.231,   2.190e-4
1.232,   2.191e-4
1.233,   2.192e-4
1.234,   2.207e-4
1.235,   2.211e-4
1.236,   2.208e-4
1.237,   2.222e-4
1.238,   2.234e-4
1.239,   2.227e-4
1.240,   2.233e-4
1.241,   2.247e-4
1.242,   2.260e-4
1.243,   2.260e-4
1.244,   2.258e-4
1.245,   2.269e-4
1.246,   2.264e-4
1.247,   2.276e-4
1.248,   2.297e-4
1.249,   2.293e-4
1.250,   2.298e-4
1.251,   2.319e-4
1.252,   2.312e-4
1.253,   2.320e-4
1.254,   2.333e-4
1.255,   2.328e-4
1.256,   2.342e-4
1.257,   2.357e-4
1.258,   2.353e-4
1.259,   2.354e-4
1.260,   2.383e-4
1.261,   2.372e-4
1.262,   2.388e-4
1.263,   2.407e-4
1.264,   2.404e-4
1.265,   2.422e-4
1.266,   2.422e-4
1.267,   2.410e-4
1.268,   2.434e-4
1.269,   2.440e-4
1.270,   2.439e-4
1.271,   2.463e-4
1.272,   2.452e-4
1.273,   2.447e-4
1.274,   2.500e-4
1.275,   2.478e-4
1.276,   2.482e-4
1.277,   2.528e-4
1.278,   2.507e-4
1.279,   2.490e-4
1.280,   2.544e-4
1.281,   2.522e-4
1.282,   2.546e-4
1.283,   2.563e-4
1.284,   2.549e-4
1.285,   2.567e-4
1.286,   2.581e-4
1.287,   2.574e-4
1.288,   2.599e-4
1.289,   2.602e-4
1.290,   2.600e-4
1.291,   2.622e-4
1.292,   2.621e-4
1.293,   2.622e-4
1.294,   2.671e-4
1.295,   2.638e-4
1.296,   2.654e-4
1.297,   2.680e-4
1.298,   2.652e-4
1.299,   2.688e-4
1.300,   2.710e-4
1.301,   2.686e-4
1.302,   2.717e-4
1.303,   2.738e-4
1.304,   2.718e-4
1.305,   2.742e-4
1.306,   2.764e-4
1.307,   2.756e-4
1.308,   2.778e-4
1.309,   2.789e-4
1.310,   2.784e-4
1.311,   2.821e-4
1.312,   2.813e-4
1.313,   2.813e-4
1.314,   2.854e-4
1.315,   2.845e-4
1.316,   2.854e-4
1.317,   2.888e-4
1.318,   2.861e-4
1.319,   2.892e-4
1.320,   2.925e-4
1.321,   2.897e-4
1.322,   2.932e-4
1.323,   2.968e-4
1.324,   2.932e-4
1.325,   2.949e-4
1.326,   2.996e-4
1.327,   2.981e-4
1.328,   3.013e-4
1.329,   3.024e-4
1.330,   3.024e-4
1.331,   3.027e-4
1.332,   3.059e-4
1.333,   3.076e-4
1.334,   3.096e-4
1.335,   3.098e-4
1.336,   3.096e-4
1.337,   3.146e-4
1.338,   3.150e-4
1.339,   3.133e-4
1.340,   3.211e-4
1.341,   3.189e-4
1.342,   3.192e-4
1.343,   3.279e-4
1.344,   3.235e-4
1.345,   3.252e-4
1.346,   3.304e-4
1.347,   3.297e-4
1.348,   3.312e-4
1.349,   3.356e-4
1.350,   3.345e-4
1.351,   3.380e-4
1.352,   3.446e-4
1.353,   3.438e-4
1.354,   3.452e-4
1.355,   3.491e-4
1.356,   3.515e-4
1.357,   3.525e-4
1.358,   3.569e-4
1.359,   3.597e-4
1.360,   3.623e-4
1.361,   3.633e-4
1.362,   3.674e-4
1.363,   3.729e-4
1.364,   3.742e-4
1.365,   3.770e-4
1.366,   3.833e-4
1.367,   3.837e-4
1.368,   3.865e-4
1.369,   3.943e-4
1.370,   3.963e-4
1.371,   3.979e-4
1.372,   4.091e-4
1.373,   4.099e-4
1.374,   4.115e-4
1.375,   4.205e-4
1.376,   4.243e-4
1.377,   4.283e-4
1.378,   4.362e-4
1.379,   4.372e-4
1.380,   4.478e-4
1.381,   4.517e-4
1.382,   4.554e-4
1.383,   4.662e-4
1.384,   4.714e-4
1.385,   4.779e-4
1.386,   4.866e-4
1.387,   4.924e-4
1.388,   4.979e-4
1.389,   5.103e-4
1.390,   5.155e-4
1.391,   5.218e-4
1.392,   5.351e-4
1.393,   5.403e-4
1.394,   5.470e-4
1.395,   5.603e-4
1.396,   5.673e-4
1.397,   5.765e-4
1.398,   5.914e-4
1.399,   5.976e-4
1.400,   6.055e-4
1.401,   6.214e-4
1.402,   6.305e-4
1.403,   6.403e-4
1.404,   6.531e-4
1.405,   6.645e-4
1.406,   6.783e-4
1.407,   6.911e-4
1.408,   7.044e-4
1.409,   7.246e-4
1.410,   7.354e-4
1.411,   7.474e-4
1.412,   7.734e-4
1.413,   7.847e-4
1.414,   7.995e-4
1.415,   8.267e-4
1.416,   8.393e-4
1.417,   8.535e-4
1.418,   8.874e-4
1.419,   9.018e-4
1.420,   9.235e-4
1.421,   9.519e-4
1.422,   9.646e-4
1.423,   9.981e-4
1.424,   1.033e-3
1.425,   1.044e-3
1.426,   1.091e-3
1.427,   1.126e-3
1.428,   1.145e-3
1.429,   1.193e-3
1.430,   1.225e-3
1.431,   1.252e-3
1.432,   1.312e-3
1.433,   1.341e-3
1.434,   1.381e-3
1.435,   1.450e-3
1.436,   1.477e-3
1.437,   1.520e-3
1.438,   1.591e-3
1.439,   1.626e-3
1.440,   1.682e-3
1.441,   1.748e-3
1.442,   1.791e-3
1.443,   1.853e-3
1.444,   1.942e-3
1.445,   1.989e-3
1.446,   2.061e-3
1.447,   2.141e-3
1.448,   2.189e-3
1.449,   2.285e-3
1.450,   2.381e-3
1.451,   2.441e-3
1.452,   2.554e-3
1.453,   2.628e-3
1.454,   2.687e-3
1.455,   2.834e-3
1.456,   2.911e-3
1.457,   2.982e-3
1.458,   3.150e-3
1.459,   3.206e-3
1.460,   3.316e-3
1.461,   3.477e-3
1.462,   3.538e-3
1.463,   3.634e-3
1.464,   3.823e-3
1.465,   3.891e-3
1.466,   4.020e-3
1.467,   4.206e-3
1.468,   4.274e-3
1.469,   4.406e-3
1.470,   4.589e-3
1.471,   4.625e-3
1.472,   4.737e-3
1.473,   4.909e-3
1.474,   4.959e-3
1.475,   5.161e-3
1.476,   5.344e-3
1.477,   5.425e-3
1.478,   5.617e-3
1.479,   5.767e-3
1.480,   5.820e-3
1.481,   6.041e-3
1.482,   6.155e-3
1.483,   6.231e-3
1.484,   6.522e-3
1.485,   6.587e-3
1.486,   6.721e-3
1.487,   6.910e-3
1.488,   6.983e-3
1.489,   7.066e-3
1.490,   7.379e-3
1.491,   7.474e-3
1.492,   7.629e-3
1.493,   7.883e-3
1.494,   7.782e-3
1.495,   7.945e-3
1.496,   8.231e-3
1.497,   8.348e-3
1.498,   8.589e-3
1.499,   8.746e-3
1.500,   8.685e-3
1.501,   8.829e-3
1.502,   8.988e-3
1.503,   9.059e-3
1.504,   9.365e-3
1.505,   9.426e-3
1.506,   9.334e-3
1.507,   9.708e-3
1.508,   9.727e-3
1.509,   9.789e-3
1.510,   9.952e-3
1.511,   9.944e-3
1.512,   9.981e-3
1.513,   1.003e-2
1.514,   1.002e-2
1.515,   9.967e-3
1.516,   1.005e-2
1.517,   1.006e-2
1.518,   1.006e-2
1.519,   1.007e-2
1.520,   1.006e-2
1.521,   1.007e-2
1.522,   1.007e-2
1.523,   1.007e-2
1.524,   1.007e-2
1.525,   1.004e-2
1.526,   1.000e-2
1.527,   9.709e-3
1.528,   9.924e-3
1.529,   1.007e-2
1.530,   1.007e-2
1.531,   1.007e-2
1.532,   1.007e-2
1.533,   1.004e-2
1.534,   1.007e-2
1.535,   9.993e-3
1.536,   9.962e-3
1.537,   1.007e-2
1.538,   1.007e-2
1.539,   1.007e-2
1.540,   1.007e-2
1.541,   1.007e-2
1.542,   1.007e-2
1.543,   1.007e-2
1.544,   1.007e-2
1.545,   1.007e-2
1.546,   1.002e-2
1.547,   1.007e-2
1.548,   9.822e-3
1.549,   9.767e-3
1.550,   9.863e-3
1.551,   9.969e-3
1.552,   1.007e-2
1.553,   1.007e-2
1.554,   1.007e-2
1.555,   1.007e-2
1.556,   1.007e-2
1.557,   1.007e-2
1.558,   1.007e-2
1.559,   1.007e-2
1.560,   1.007e-2
1.561,   1.007e-2
1.562,   1.007e-2
1.563,   1.007e-2
1.564,   1.007e-2
1.565,   1.007e-2
1.566,   1.007e-2
1.567,   1.007e-2
1.568,   1.007e-2
1.569,   1.007e-2
1.570,   1.007e-2
1.571,   1.007e-2
1.572,   1.007e-2
1.573,   1.007e-2
1.574,   1.007e-2
1.575,   1.007e-2
1.576,   1.007e-2
1.577,   1.007e-2
1.578,   1.007e-2
1.579,   1.007e-2
1.580,   1.007e-2
1.581,   1.007e-2
1.582,   1.007e-2
1.583,   1.007e-2
1.584,   1.007e-2
1.585,   1.007e-2
1.586,   1.007e-2
1.587,   1.007e-2
1.588,   1.007e-2
1.589,   1.007e-2
1.590,   1.007e-2
1.591,   1.007e-2
1.592,   1.007e-2
1.593,   1.007e-2
1.594,   1.007e-2
1.595,   1.007e-2
1.596,   1.007e-2
1.597,   1.007e-2
1.598,   1.007e-2
1.599,   1.007e-2
1.600,   1.007e-2
1.601,   1.007e-2
1.602,   1.007e-2
1.603,   1.007e-2
1.604,   1.007e-2
1.605,   1.007e-2
1.606,   1.007e-2
1.607,   1.007e-2
1.608,   1.007e-2
1.609,   1.007e-2
1.610,   1.007e-2
1.611,   1.007e-2
1.612,   1.007e-2
1.613,   1.007e-2
1.614,   1.007e-2
1.615,   1.007e-2
1.616,   1.007e-2
1.617,   1.007e-2
1.618,   1.007e-2
1.619,   1.007e-2
1.620,   1.007e-2
1.621,   1.007e-2
1.622,   1.007e-2
1.623,   1.007e-2
1.624,   1.007e-2
1.625,   1.007e-2
1.626,   1.007e-2
1.627,   1.007e-2
1.628,   1.007e-2
1.629,   1.007e-2
1.630,   1.007e-2
1.631,   1.007e-2
1.632,   1.007e-2
1.633,   1.007e-2
1.634,   1.007e-2
1.635,   1.007e-2
1.636,   1.007e-2
1.637,   1.007e-2
1.638,   1.007e-2
1.639,   1.007e-2
1.640,   1.007e-2
1.641,   1.007e-2
1.642,   1.007e-2
1.643,   1.007e-2
1.644,   1.007e-2
1.645,   1.007e-2
1.646,   1.007e-2
1.647,   1.007e-2
1.648,   1.007e-2
1.649,   1.007e-2
1.650,   1.007e-2
1.651,   1.007e-2
1.652,   1.007e-2
1.653,   1.007e-2
1.654,   1.007e-2
1.655,   1.007e-2
1.656,   1.007e-2
1.657,   1.007e-2
1.658,   1.007e-2
1.659,   1.007e-2
1.660,   1.007e-2
1.661,   1.007e-2
1.662,   1.007e-2
1.663,   1.007e-2
1.664,   1.007e-2
1.665,   1.007e-2
1.666,   1.007e-2
1.667,   1.007e-2
1.668,   1.007e-2
1.669,   1.007e-2
1.670,   1.007e-2
1.671,   1.007e-2
1.672,   1.007e-2
1.673,   1.007e-2
1.674,   1.007e-2
1.675,   1.007e-2
1.676,   1.007e-2
1.677,   1.007e-2
1.678,   1.007e-2
1.679,   1.007e-2
1.680,   1.007e-2
1.681,   1.007e-2
1.682,   1.007e-2