File: Experimental Records and Raw Data/batch5/final500/B5_BEST_500_#1_High_Quality(#17)-215mV.txt
June 9, 2023   11:11:40
Linear Sweep Voltammetry
File: d:\current work\al_oer\electrochemical test data\batch 5\500\B5_BEST_500_#1_High_Quality(#17)-215mV.txt
Data Source:  Experiment
Instrument Model:  CHI660E
Header:
Note:

Init E (V) = 0.896

Final E (V) = 1.500

Scan Rate (V/s) = 0.010
Sample Interval (V) = 0.001
Quiet Time (sec) = 2
Sensitivity (A/V) = 0.001
Comp R (ohm) = 5.1

Results:

Channel 1:

Potential/V, Current/A
0.896,   2.326e-4
0.897,   2.597e-4
0.898,   2.585e-4
0.899,   2.629e-4
0.900,   2.629e-4
0.901,   2.615e-4
0.902,   2.633e-4
0.903,   2.577e-4
0.904,   2.617e-4
0.905,   2.573e-4
0.906,   2.589e-4
0.907,   2.525e-4
0.908,   2.577e-4
0.909,   2.541e-4
0.910,   2.548e-4
0.911,   2.503e-4
0.912,   2.528e-4
0.913,   2.512e-4
0.914,   2.495e-4
0.915,   2.479e-4
0.916,   2.446e-4
0.917,   2.492e-4
0.918,   2.442e-4
0.919,   2.466e-4
0.920,   2.404e-4
0.921,   2.445e-4
0.922,   2.410e-4
0.923,   2.429e-4
0.924,   2.392e-4
0.925,   2.380e-4
0.926,   2.395e-4
0.927,   2.383e-4
0.928,   2.381e-4
0.929,   2.341e-4
0.930,   2.366e-4
0.931,   2.344e-4
0.932,   2.359e-4
0.933,   2.300e-4
0.934,   2.353e-4
0.935,   2.309e-4
0.936,   2.324e-4
0.937,   2.304e-4
0.938,   2.296e-4
0.939,   2.298e-4
0.940,   2.290e-4
0.941,   2.282e-4
0.942,   2.249e-4
0.943,   2.269e-4
0.944,   2.263e-4
0.945,   2.279e-4
0.946,   2.230e-4
0.947,   2.239e-4
0.948,   2.262e-4
0.949,   2.249e-4
0.950,   2.225e-4
0.951,   2.215e-4
0.952,   2.213e-4
0.953,   2.217e-4
0.954,   2.213e-4
0.955,   2.192e-4
0.956,   2.202e-4
0.957,   2.191e-4
0.958,   2.196e-4
0.959,   2.165e-4
0.960,   2.191e-4
0.961,   2.181e-4
0.962,   2.174e-4
0.963,   2.156e-4
0.964,   2.159e-4
0.965,   2.159e-4
0.966,   2.162e-4
0.967,   2.145e-4
0.968,   2.124e-4
0.969,   2.151e-4
0.970,   2.141e-4
0.971,   2.141e-4
0.972,   2.104e-4
0.973,   2.138e-4
0.974,   2.127e-4
0.975,   2.117e-4
0.976,   2.099e-4
0.977,   2.114e-4
0.978,   2.108e-4
0.979,   2.108e-4
0.980,   2.105e-4
0.981,   2.079e-4
0.982,   2.097e-4
0.983,   2.098e-4
0.984,   2.107e-4
0.985,   2.055e-4
0.986,   2.082e-4
0.987,   2.085e-4
0.988,   2.059e-4
0.989,   2.072e-4
0.990,   2.075e-4
0.991,   2.082e-4
0.992,   2.059e-4
0.993,   2.059e-4
0.994,   2.051e-4
0.995,   2.078e-4
0.996,   2.046e-4
0.997,   2.032e-4
0.998,   2.040e-4
0.999,   2.071e-4
1.000,   2.038e-4
1.001,   2.025e-4
1.002,   2.038e-4
1.003,   2.043e-4
1.004,   2.034e-4
1.005,   2.024e-4
1.006,   2.029e-4
1.007,   2.016e-4
1.008,   2.033e-4
1.009,   2.031e-4
1.010,   1.994e-4
1.011,   2.014e-4
1.012,   2.036e-4
1.013,   2.019e-4
1.014,   1.980e-4
1.015,   2.005e-4
1.016,   2.020e-4
1.017,   2.002e-4
1.018,   1.998e-4
1.019,   1.991e-4
1.020,   1.996e-4
1.021,   2.017e-4
1.022,   1.997e-4
1.023,   1.972e-4
1.024,   1.998e-4
1.025,   2.011e-4
1.026,   1.982e-4
1.027,   1.973e-4
1.028,   1.995e-4
1.029,   1.965e-4
1.030,   2.001e-4
1.031,   1.979e-4
1.032,   1.970e-4
1.033,   1.967e-4
1.034,   2.001e-4
1.035,   1.961e-4
1.036,   1.969e-4
1.037,   1.977e-4
1.038,   1.990e-4
1.039,   1.955e-4
1.040,   1.952e-4
1.041,   1.977e-4
1.042,   1.957e-4
1.043,   1.978e-4
1.044,   1.968e-4
1.045,   1.952e-4
1.046,   1.962e-4
1.047,   1.982e-4
1.048,   1.983e-4
1.049,   1.920e-4
1.050,   1.964e-4
1.051,   1.983e-4
1.052,   1.959e-4
1.053,   1.948e-4
1.054,   1.960e-4
1.055,   1.945e-4
1.056,   1.973e-4
1.057,   1.966e-4
1.058,   1.927e-4
1.059,   1.951e-4
1.060,   1.975e-4
1.061,   1.963e-4
1.062,   1.922e-4
1.063,   1.962e-4
1.064,   1.960e-4
1.065,   1.956e-4
1.066,   1.945e-4
1.067,   1.957e-4
1.068,   1.940e-4
1.069,   1.953e-4
1.070,   1.970e-4
1.071,   1.933e-4
1.072,   1.958e-4
1.073,   1.957e-4
1.074,   1.983e-4
1.075,   1.912e-4
1.076,   1.973e-4
1.077,   1.952e-4
1.078,   1.962e-4
1.079,   1.949e-4
1.080,   1.973e-4
1.081,   1.934e-4
1.082,   1.948e-4
1.083,   1.987e-4
1.084,   1.929e-4
1.085,   1.955e-4
1.086,   1.963e-4
1.087,   1.995e-4
1.088,   1.914e-4
1.089,   1.970e-4
1.090,   1.956e-4
1.091,   1.977e-4
1.092,   1.961e-4
1.093,   1.953e-4
1.094,   1.963e-4
1.095,   1.980e-4
1.096,   1.987e-4
1.097,   1.929e-4
1.098,   1.980e-4
1.099,   1.981e-4
1.100,   1.985e-4
1.101,   1.941e-4
1.102,   1.985e-4
1.103,   1.979e-4
1.104,   1.976e-4
1.105,   1.988e-4
1.106,   1.964e-4
1.107,   1.977e-4
1.108,   2.005e-4
1.109,   1.988e-4
1.110,   1.952e-4
1.111,   1.993e-4
1.112,   2.008e-4
1.113,   1.996e-4
1.114,   1.964e-4
1.115,   1.998e-4
1.116,   2.005e-4
1.117,   2.006e-4
1.118,   2.015e-4
1.119,   1.984e-4
1.120,   1.982e-4
1.121,   2.027e-4
1.122,   2.009e-4
1.123,   1.995e-4
1.124,   2.022e-4
1.125,   2.020e-4
1.126,   2.027e-4
1.127,   2.004e-4
1.128,   2.038e-4
1.129,   1.998e-4
1.130,   2.035e-4
1.131,   2.036e-4
1.132,   2.018e-4
1.133,   2.022e-4
1.134,   2.081e-4
1.135,   2.016e-4
1.136,   2.022e-4
1.137,   2.053e-4
1.138,   2.045e-4
1.139,   2.040e-4
1.140,   2.049e-4
1.141,   2.048e-4
1.142,   2.040e-4
1.143,   2.072e-4
1.144,   2.054e-4
1.145,   2.051e-4
1.146,   2.050e-4
1.147,   2.101e-4
1.148,   2.051e-4
1.149,   2.066e-4
1.150,   2.073e-4
1.151,   2.072e-4
1.152,   2.075e-4
1.153,   2.091e-4
1.154,   2.076e-4
1.155,   2.072e-4
1.156,   2.104e-4
1.157,   2.104e-4
1.158,   2.091e-4
1.159,   2.086e-4
1.160,   2.103e-4
1.161,   2.095e-4
1.162,   2.109e-4
1.163,   2.123e-4
1.164,   2.114e-4
1.165,   2.111e-4
1.166,   2.132e-4
1.167,   2.120e-4
1.168,   2.113e-4
1.169,   2.157e-4
1.170,   2.120e-4
1.171,   2.150e-4
1.172,   2.128e-4
1.173,   2.167e-4
1.174,   2.140e-4
1.175,   2.166e-4
1.176,   2.166e-4
1.177,   2.162e-4
1.178,   2.157e-4
1.179,   2.155e-4
1.180,   2.191e-4
1.181,   2.167e-4
1.182,   2.213e-4
1.183,   2.159e-4
1.184,   2.202e-4
1.185,   2.199e-4
1.186,   2.234e-4
1.187,   2.170e-4
1.188,   2.228e-4
1.189,   2.223e-4
1.190,   2.199e-4
1.191,   2.232e-4
1.192,   2.206e-4
1.193,   2.245e-4
1.194,   2.226e-4
1.195,   2.296e-4
1.196,   2.189e-4
1.197,   2.264e-4
1.198,   2.268e-4
1.199,   2.292e-4
1.200,   2.232e-4
1.201,   2.267e-4
1.202,   2.302e-4
1.203,   2.282e-4
1.204,   2.277e-4
1.205,   2.276e-4
1.206,   2.322e-4
1.207,   2.269e-4
1.208,   2.355e-4
1.209,   2.276e-4
1.210,   2.312e-4
1.211,   2.363e-4
1.212,   2.305e-4
1.213,   2.295e-4
1.214,   2.372e-4
1.215,   2.309e-4
1.216,   2.376e-4
1.217,   2.364e-4
1.218,   2.293e-4
1.219,   2.462e-4
1.220,   2.320e-4
1.221,   2.445e-4
1.222,   2.395e-4
1.223,   2.301e-4
1.224,   2.490e-4
1.225,   2.356e-4
1.226,   2.376e-4
1.227,   2.456e-4
1.228,   2.363e-4
1.229,   2.469e-4
1.230,   2.431e-4
1.231,   2.337e-4
1.232,   2.539e-4
1.233,   2.396e-4
1.234,   2.547e-4
1.235,   2.453e-4
1.236,   2.376e-4
1.237,   2.561e-4
1.238,   2.473e-4
1.239,   2.440e-4
1.240,   2.517e-4
1.241,   2.440e-4
1.242,   2.538e-4
1.243,   2.520e-4
1.244,   2.432e-4
1.245,   2.578e-4
1.246,   2.539e-4
1.247,   2.622e-4
1.248,   2.482e-4
1.249,   2.502e-4
1.250,   2.635e-4
1.251,   2.554e-4
1.252,   2.539e-4
1.253,   2.550e-4
1.254,   2.575e-4
1.255,   2.573e-4
1.256,   2.639e-4
1.257,   2.535e-4
1.258,   2.650e-4
1.259,   2.599e-4
1.260,   2.683e-4
1.261,   2.527e-4
1.262,   2.660e-4
1.263,   2.618e-4
1.264,   2.723e-4
1.265,   2.643e-4
1.266,   2.583e-4
1.267,   2.687e-4
1.268,   2.685e-4
1.269,   2.795e-4
1.270,   2.513e-4
1.271,   2.774e-4
1.272,   2.639e-4
1.273,   2.880e-4
1.274,   2.564e-4
1.275,   2.780e-4
1.276,   2.694e-4
1.277,   2.827e-4
1.278,   2.748e-4
1.279,   2.661e-4
1.280,   2.821e-4
1.281,   2.742e-4
1.282,   2.925e-4
1.283,   2.625e-4
1.284,   2.862e-4
1.285,   2.735e-4
1.286,   2.967e-4
1.287,   2.695e-4
1.288,   2.855e-4
1.289,   2.801e-4
1.290,   2.859e-4
1.291,   2.896e-4
1.292,   2.790e-4
1.293,   2.877e-4
1.294,   2.824e-4
1.295,   3.009e-4
1.296,   2.691e-4
1.297,   2.982e-4
1.298,   2.827e-4
1.299,   3.060e-4
1.300,   2.786e-4
1.301,   3.007e-4
1.302,   2.869e-4
1.303,   2.972e-4
1.304,   2.994e-4
1.305,   2.832e-4
1.306,   3.020e-4
1.307,   2.923e-4
1.308,   3.182e-4
1.309,   2.743e-4
1.310,   3.069e-4
1.311,   2.948e-4
1.312,   3.180e-4
1.313,   2.897e-4
1.314,   3.011e-4
1.315,   3.025e-4
1.316,   3.100e-4
1.317,   3.166e-4
1.318,   2.896e-4
1.319,   3.157e-4
1.320,   3.009e-4
1.321,   3.328e-4
1.322,   2.876e-4
1.323,   3.252e-4
1.324,   3.029e-4
1.325,   3.289e-4
1.326,   3.069e-4
1.327,   3.147e-4
1.328,   3.149e-4
1.329,   3.197e-4
1.330,   3.306e-4
1.331,   3.030e-4
1.332,   3.293e-4
1.333,   3.172e-4
1.334,   3.484e-4
1.335,   3.042e-4
1.336,   3.353e-4
1.337,   3.203e-4
1.338,   3.417e-4
1.339,   3.292e-4
1.340,   3.272e-4
1.341,   3.289e-4
1.342,   3.336e-4
1.343,   3.535e-4
1.344,   3.167e-4
1.345,   3.440e-4
1.346,   3.306e-4
1.347,   3.650e-4
1.348,   3.217e-4
1.349,   3.470e-4
1.350,   3.378e-4
1.351,   3.632e-4
1.352,   3.444e-4
1.353,   3.436e-4
1.354,   3.545e-4
1.355,   3.525e-4
1.356,   3.742e-4
1.357,   3.345e-4
1.358,   3.661e-4
1.359,   3.479e-4
1.360,   3.931e-4
1.361,   3.410e-4
1.362,   3.749e-4
1.363,   3.541e-4
1.364,   3.883e-4
1.365,   3.719e-4
1.366,   3.639e-4
1.367,   3.771e-4
1.368,   3.755e-4
1.369,   4.029e-4
1.370,   3.617e-4
1.371,   3.986e-4
1.372,   3.724e-4
1.373,   4.209e-4
1.374,   3.744e-4
1.375,   3.997e-4
1.376,   3.914e-4
1.377,   4.152e-4
1.378,   4.115e-4
1.379,   3.967e-4
1.380,   4.173e-4
1.381,   4.075e-4
1.382,   4.406e-4
1.383,   4.017e-4
1.384,   4.371e-4
1.385,   4.163e-4
1.386,   4.558e-4
1.387,   4.246e-4
1.388,   4.398e-4
1.389,   4.409e-4
1.390,   4.584e-4
1.391,   4.664e-4
1.392,   4.452e-4
1.393,   4.714e-4
1.394,   4.640e-4
1.395,   5.037e-4
1.396,   4.568e-4
1.397,   5.024e-4
1.398,   4.860e-4
1.399,   5.226e-4
1.400,   4.945e-4
1.401,   5.105e-4
1.402,   5.272e-4
1.403,   5.356e-4
1.404,   5.600e-4
1.405,   5.136e-4
1.406,   5.697e-4
1.407,   5.559e-4
1.408,   6.085e-4
1.409,   5.522e-4
1.410,   6.025e-4
1.411,   5.994e-4
1.412,   6.424e-4
1.413,   6.255e-4
1.414,   6.284e-4
1.415,   6.662e-4
1.416,   6.709e-4
1.417,   7.231e-4
1.418,   6.596e-4
1.419,   7.367e-4
1.420,   7.276e-4
1.421,   8.019e-4
1.422,   7.421e-4
1.423,   7.991e-4
1.424,   8.169e-4
1.425,   8.708e-4
1.426,   8.761e-4
1.427,   8.668e-4
1.428,   9.398e-4
1.429,   9.534e-4
1.430,   1.040e-3
1.431,   9.634e-4
1.432,   1.082e-3
1.433,   1.085e-3
1.434,   1.204e-3
1.435,   1.150e-3
1.436,   1.225e-3
1.437,   1.306e-3
1.438,   1.347e-3
1.439,   1.434e-3
1.440,   1.368e-3
1.441,   1.557e-3
1.442,   1.567e-3
1.443,   1.762e-3
1.444,   1.639e-3
1.445,   1.814e-3
1.446,   1.899e-3
1.447,   2.062e-3
1.448,   2.064e-3
1.449,   2.109e-3
1.450,   2.333e-3
1.451,   2.398e-3
1.452,   2.588e-3
1.453,   2.520e-3
1.454,   2.781e-3
1.455,   2.879e-3
1.456,   3.159e-3
1.457,   3.134e-3
1.458,   3.340e-3
1.459,   3.591e-3
1.460,   3.768e-3
1.461,   3.946e-3
1.462,   4.011e-3
1.463,   4.401e-3
1.464,   4.515e-3
1.465,   4.885e-3
1.466,   4.900e-3
1.467,   5.282e-3
1.468,   5.448e-3
1.469,   5.823e-3
1.470,   5.902e-3
1.471,   6.201e-3
1.472,   6.630e-3
1.473,   6.870e-3
1.474,   7.107e-3
1.475,   7.203e-3
1.476,   7.786e-3
1.477,   7.932e-3
1.478,   8.371e-3
1.479,   8.589e-3
1.480,   9.073e-3
1.481,   9.238e-3
1.482,   9.586e-3
1.483,   9.739e-3
1.484,   9.904e-3
1.485,   9.997e-3
1.486,   1.007e-2
1.487,   1.007e-2
1.488,   1.007e-2
1.489,   1.007e-2
1.490,   1.007e-2
1.491,   1.007e-2
1.492,   1.007e-2
1.493,   1.007e-2
1.494,   1.007e-2
1.495,   1.007e-2
1.496,   1.007e-2
1.497,   1.007e-2
1.498,   1.007e-2
1.499,   1.007e-2
1.500,   1.007e-2