File: Experimental Records and Raw Data/batch5/final500/B5_BEST_500_#1_Full(#6)-204mV.txt
June 9, 2023   15:36:32
Linear Sweep Voltammetry
File: d:\current work\al_oer\electrochemical test data\batch 5\500\B5_BEST_500_#1_Full(#6)-204mV.txt
Data Source:  Experiment
Instrument Model:  CHI660E
Header:
Note:

Init E (V) = 0.899

Final E (V) = 1.501

Scan Rate (V/s) = 0.010
Sample Interval (V) = 0.001
Quiet Time (sec) = 2
Sensitivity (A/V) = 0.001
Comp R (ohm) = 3.8

Results:

Channel 1:

Potential/V, Current/A
0.899,   3.713e-4
0.900,   4.570e-4
0.901,   4.498e-4
0.902,   4.630e-4
0.903,   4.517e-4
0.904,   4.437e-4
0.905,   4.574e-4
0.906,   4.470e-4
0.907,   4.474e-4
0.908,   4.370e-4
0.909,   4.476e-4
0.910,   4.342e-4
0.911,   4.392e-4
0.912,   4.284e-4
0.913,   4.511e-4
0.914,   4.246e-4
0.915,   4.285e-4
0.916,   4.264e-4
0.917,   4.354e-4
0.918,   4.220e-4
0.919,   4.191e-4
0.920,   4.289e-4
0.921,   4.248e-4
0.922,   4.192e-4
0.923,   4.096e-4
0.924,   4.277e-4
0.925,   4.097e-4
0.926,   4.158e-4
0.927,   4.077e-4
0.928,   4.242e-4
0.929,   4.038e-4
0.930,   4.094e-4
0.931,   4.061e-4
0.932,   4.157e-4
0.933,   4.008e-4
0.934,   4.033e-4
0.935,   4.074e-4
0.936,   4.062e-4
0.937,   4.012e-4
0.938,   3.931e-4
0.939,   4.092e-4
0.940,   3.942e-4
0.941,   4.012e-4
0.942,   3.911e-4
0.943,   4.071e-4
0.944,   3.892e-4
0.945,   3.959e-4
0.946,   3.922e-4
0.947,   3.996e-4
0.948,   3.929e-4
0.949,   3.861e-4
0.950,   3.932e-4
0.951,   3.929e-4
0.952,   3.866e-4
0.953,   3.824e-4
0.954,   3.956e-4
0.955,   3.826e-4
0.956,   3.898e-4
0.957,   3.786e-4
0.958,   3.973e-4
0.959,   3.828e-4
0.960,   3.815e-4
0.961,   3.851e-4
0.962,   3.888e-4
0.963,   3.792e-4
0.964,   3.738e-4
0.965,   3.867e-4
0.966,   3.891e-4
0.967,   3.730e-4
0.968,   3.723e-4
0.969,   3.902e-4
0.970,   3.739e-4
0.971,   3.846e-4
0.972,   3.722e-4
0.973,   3.849e-4
0.974,   3.684e-4
0.975,   3.745e-4
0.976,   3.774e-4
0.977,   3.850e-4
0.978,   3.716e-4
0.979,   3.699e-4
0.980,   3.804e-4
0.981,   3.724e-4
0.982,   3.730e-4
0.983,   3.677e-4
0.984,   3.850e-4
0.985,   3.672e-4
0.986,   3.735e-4
0.987,   3.686e-4
0.988,   3.834e-4
0.989,   3.613e-4
0.990,   3.732e-4
0.991,   3.732e-4
0.992,   3.768e-4
0.993,   3.648e-4
0.994,   3.685e-4
0.995,   3.759e-4
0.996,   3.706e-4
0.997,   3.708e-4
0.998,   3.664e-4
0.999,   3.749e-4
1.000,   3.628e-4
1.001,   3.722e-4
1.002,   3.684e-4
1.003,   3.779e-4
1.004,   3.604e-4
1.005,   3.675e-4
1.006,   3.693e-4
1.007,   3.740e-4
1.008,   3.612e-4
1.009,   3.688e-4
1.010,   3.740e-4
1.011,   3.647e-4
1.012,   3.661e-4
1.013,   3.643e-4
1.014,   3.824e-4
1.015,   3.595e-4
1.016,   3.668e-4
1.017,   3.687e-4
1.018,   3.721e-4
1.019,   3.589e-4
1.020,   3.708e-4
1.021,   3.686e-4
1.022,   3.732e-4
1.023,   3.623e-4
1.024,   3.668e-4
1.025,   3.748e-4
1.026,   3.684e-4
1.027,   3.634e-4
1.028,   3.637e-4
1.029,   3.794e-4
1.030,   3.631e-4
1.031,   3.655e-4
1.032,   3.699e-4
1.033,   3.765e-4
1.034,   3.560e-4
1.035,   3.702e-4
1.036,   3.709e-4
1.037,   3.759e-4
1.038,   3.635e-4
1.039,   3.673e-4
1.040,   3.747e-4
1.041,   3.646e-4
1.042,   3.678e-4
1.043,   3.660e-4
1.044,   3.817e-4
1.045,   3.611e-4
1.046,   3.713e-4
1.047,   3.671e-4
1.048,   3.830e-4
1.049,   3.645e-4
1.050,   3.709e-4
1.051,   3.696e-4
1.052,   3.791e-4
1.053,   3.620e-4
1.054,   3.694e-4
1.055,   3.820e-4
1.056,   3.702e-4
1.057,   3.701e-4
1.058,   3.697e-4
1.059,   3.847e-4
1.060,   3.647e-4
1.061,   3.756e-4
1.062,   3.732e-4
1.063,   3.833e-4
1.064,   3.654e-4
1.065,   3.767e-4
1.066,   3.770e-4
1.067,   3.823e-4
1.068,   3.711e-4
1.069,   3.707e-4
1.070,   3.868e-4
1.071,   3.757e-4
1.072,   3.792e-4
1.073,   3.719e-4
1.074,   3.899e-4
1.075,   3.734e-4
1.076,   3.794e-4
1.077,   3.754e-4
1.078,   3.908e-4
1.079,   3.702e-4
1.080,   3.862e-4
1.081,   3.804e-4
1.082,   3.842e-4
1.083,   3.782e-4
1.084,   3.840e-4
1.085,   3.879e-4
1.086,   3.834e-4
1.087,   3.829e-4
1.088,   3.824e-4
1.089,   3.933e-4
1.090,   3.754e-4
1.091,   3.916e-4
1.092,   3.836e-4
1.093,   3.972e-4
1.094,   3.772e-4
1.095,   3.909e-4
1.096,   3.908e-4
1.097,   3.941e-4
1.098,   3.819e-4
1.099,   3.927e-4
1.100,   3.982e-4
1.101,   3.896e-4
1.102,   3.918e-4
1.103,   3.892e-4
1.104,   4.021e-4
1.105,   3.837e-4
1.106,   4.000e-4
1.107,   3.953e-4
1.108,   4.014e-4
1.109,   3.869e-4
1.110,   4.047e-4
1.111,   3.992e-4
1.112,   4.018e-4
1.113,   3.925e-4
1.114,   4.023e-4
1.115,   4.060e-4
1.116,   3.997e-4
1.117,   4.004e-4
1.118,   4.039e-4
1.119,   4.105e-4
1.120,   3.946e-4
1.121,   4.118e-4
1.122,   4.060e-4
1.123,   4.161e-4
1.124,   3.911e-4
1.125,   4.182e-4
1.126,   4.171e-4
1.127,   4.039e-4
1.128,   4.045e-4
1.129,   4.225e-4
1.130,   4.112e-4
1.131,   4.056e-4
1.132,   4.177e-4
1.133,   4.143e-4
1.134,   4.239e-4
1.135,   4.042e-4
1.136,   4.257e-4
1.137,   4.178e-4
1.138,   4.300e-4
1.139,   4.101e-4
1.140,   4.241e-4
1.141,   4.228e-4
1.142,   4.284e-4
1.143,   4.198e-4
1.144,   4.322e-4
1.145,   4.288e-4
1.146,   4.191e-4
1.147,   4.305e-4
1.148,   4.295e-4
1.149,   4.312e-4
1.150,   4.193e-4
1.151,   4.390e-4
1.152,   4.295e-4
1.153,   4.422e-4
1.154,   4.225e-4
1.155,   4.426e-4
1.156,   4.406e-4
1.157,   4.416e-4
1.158,   4.293e-4
1.159,   4.435e-4
1.160,   4.459e-4
1.161,   4.352e-4
1.162,   4.437e-4
1.163,   4.456e-4
1.164,   4.564e-4
1.165,   4.323e-4
1.166,   4.527e-4
1.167,   4.493e-4
1.168,   4.602e-4
1.169,   4.439e-4
1.170,   4.514e-4
1.171,   4.561e-4
1.172,   4.586e-4
1.173,   4.470e-4
1.174,   4.634e-4
1.175,   4.685e-4
1.176,   4.496e-4
1.177,   4.622e-4
1.178,   4.593e-4
1.179,   4.717e-4
1.180,   4.524e-4
1.181,   4.742e-4
1.182,   4.651e-4
1.183,   4.819e-4
1.184,   4.521e-4
1.185,   4.772e-4
1.186,   4.777e-4
1.187,   4.719e-4
1.188,   4.676e-4
1.189,   4.791e-4
1.190,   4.851e-4
1.191,   4.781e-4
1.192,   4.757e-4
1.193,   4.779e-4
1.194,   4.917e-4
1.195,   4.741e-4
1.196,   4.931e-4
1.197,   4.810e-4
1.198,   4.999e-4
1.199,   4.786e-4
1.200,   4.976e-4
1.201,   4.958e-4
1.202,   4.975e-4
1.203,   4.888e-4
1.204,   4.928e-4
1.205,   5.077e-4
1.206,   4.979e-4
1.207,   4.976e-4
1.208,   4.969e-4
1.209,   5.212e-4
1.210,   4.939e-4
1.211,   5.171e-4
1.212,   5.085e-4
1.213,   5.189e-4
1.214,   4.991e-4
1.215,   5.174e-4
1.216,   5.094e-4
1.217,   5.268e-4
1.218,   5.144e-4
1.219,   5.209e-4
1.220,   5.276e-4
1.221,   5.220e-4
1.222,   5.237e-4
1.223,   5.184e-4
1.224,   5.408e-4
1.225,   5.165e-4
1.226,   5.361e-4
1.227,   5.273e-4
1.228,   5.487e-4
1.229,   5.228e-4
1.230,   5.447e-4
1.231,   5.368e-4
1.232,   5.401e-4
1.233,   5.355e-4
1.234,   5.406e-4
1.235,   5.530e-4
1.236,   5.358e-4
1.237,   5.482e-4
1.238,   5.444e-4
1.239,   5.613e-4
1.240,   5.379e-4
1.241,   5.590e-4
1.242,   5.469e-4
1.243,   5.677e-4
1.244,   5.443e-4
1.245,   5.607e-4
1.246,   5.624e-4
1.247,   5.607e-4
1.248,   5.579e-4
1.249,   5.645e-4
1.250,   5.701e-4
1.251,   5.598e-4
1.252,   5.703e-4
1.253,   5.631e-4
1.254,   5.810e-4
1.255,   5.557e-4
1.256,   5.810e-4
1.257,   5.729e-4
1.258,   5.804e-4
1.259,   5.636e-4
1.260,   5.859e-4
1.261,   5.739e-4
1.262,   5.808e-4
1.263,   5.770e-4
1.264,   5.834e-4
1.265,   5.896e-4
1.266,   5.644e-4
1.267,   5.933e-4
1.268,   5.778e-4
1.269,   6.048e-4
1.270,   5.722e-4
1.271,   5.860e-4
1.272,   5.998e-4
1.273,   6.151e-4
1.274,   5.735e-4
1.275,   5.920e-4
1.276,   6.038e-4
1.277,   6.041e-4
1.278,   5.824e-4
1.279,   5.942e-4
1.280,   6.162e-4
1.281,   5.964e-4
1.282,   5.935e-4
1.283,   5.971e-4
1.284,   6.254e-4
1.285,   5.924e-4
1.286,   6.005e-4
1.287,   6.005e-4
1.288,   6.275e-4
1.289,   5.930e-4
1.290,   6.055e-4
1.291,   6.177e-4
1.292,   6.213e-4
1.293,   5.943e-4
1.294,   5.996e-4
1.295,   6.316e-4
1.296,   6.152e-4
1.297,   6.105e-4
1.298,   6.072e-4
1.299,   6.449e-4
1.300,   6.082e-4
1.301,   6.032e-4
1.302,   6.166e-4
1.303,   6.461e-4
1.304,   6.046e-4
1.305,   6.125e-4
1.306,   6.300e-4
1.307,   6.444e-4
1.308,   6.076e-4
1.309,   6.114e-4
1.310,   6.538e-4
1.311,   6.296e-4
1.312,   6.231e-4
1.313,   6.202e-4
1.314,   6.570e-4
1.315,   6.236e-4
1.316,   6.201e-4
1.317,   6.317e-4
1.318,   6.683e-4
1.319,   6.174e-4
1.320,   6.261e-4
1.321,   6.516e-4
1.322,   6.634e-4
1.323,   6.265e-4
1.324,   6.318e-4
1.325,   6.690e-4
1.326,   6.491e-4
1.327,   6.342e-4
1.328,   6.397e-4
1.329,   6.796e-4
1.330,   6.445e-4
1.331,   6.413e-4
1.332,   6.497e-4
1.333,   6.797e-4
1.334,   6.436e-4
1.335,   6.511e-4
1.336,   6.727e-4
1.337,   6.779e-4
1.338,   6.450e-4
1.339,   6.581e-4
1.340,   6.885e-4
1.341,   6.691e-4
1.342,   6.605e-4
1.343,   6.660e-4
1.344,   6.994e-4
1.345,   6.610e-4
1.346,   6.768e-4
1.347,   6.793e-4
1.348,   7.051e-4
1.349,   6.686e-4
1.350,   6.820e-4
1.351,   6.969e-4
1.352,   7.046e-4
1.353,   6.761e-4
1.354,   6.867e-4
1.355,   7.255e-4
1.356,   7.014e-4
1.357,   6.901e-4
1.358,   6.995e-4
1.359,   7.398e-4
1.360,   6.975e-4
1.361,   7.026e-4
1.362,   7.163e-4
1.363,   7.406e-4
1.364,   7.010e-4
1.365,   7.128e-4
1.366,   7.427e-4
1.367,   7.478e-4
1.368,   7.213e-4
1.369,   7.351e-4
1.370,   7.585e-4
1.371,   7.428e-4
1.372,   7.396e-4
1.373,   7.508e-4
1.374,   7.868e-4
1.375,   7.419e-4
1.376,   7.662e-4
1.377,   7.651e-4
1.378,   8.067e-4
1.379,   7.593e-4
1.380,   7.752e-4
1.381,   8.013e-4
1.382,   8.010e-4
1.383,   7.788e-4
1.384,   8.004e-4
1.385,   8.344e-4
1.386,   8.160e-4
1.387,   8.191e-4
1.388,   8.247e-4
1.389,   8.468e-4
1.390,   8.253e-4
1.391,   8.467e-4
1.392,   8.513e-4
1.393,   8.852e-4
1.394,   8.498e-4
1.395,   8.822e-4
1.396,   8.899e-4
1.397,   9.031e-4
1.398,   8.865e-4
1.399,   9.075e-4
1.400,   9.536e-4
1.401,   9.368e-4
1.402,   9.358e-4
1.403,   9.468e-4
1.404,   9.949e-4
1.405,   9.623e-4
1.406,   9.947e-4
1.407,   1.018e-3
1.408,   1.057e-3
1.409,   1.014e-3
1.410,   1.050e-3
1.411,   1.087e-3
1.412,   1.104e-3
1.413,   1.090e-3
1.414,   1.123e-3
1.415,   1.183e-3
1.416,   1.175e-3
1.417,   1.178e-3
1.418,   1.213e-3
1.419,   1.308e-3
1.420,   1.257e-3
1.421,   1.292e-3
1.422,   1.348e-3
1.423,   1.423e-3
1.424,   1.375e-3
1.425,   1.429e-3
1.426,   1.513e-3
1.427,   1.575e-3
1.428,   1.541e-3
1.429,   1.601e-3
1.430,   1.745e-3
1.431,   1.748e-3
1.432,   1.763e-3
1.433,   1.845e-3
1.434,   2.006e-3
1.435,   1.967e-3
1.436,   2.040e-3
1.437,   2.154e-3
1.438,   2.318e-3
1.439,   2.274e-3
1.440,   2.402e-3
1.441,   2.569e-3
1.442,   2.666e-3
1.443,   2.679e-3
1.444,   2.824e-3
1.445,   3.066e-3
1.446,   3.113e-3
1.447,   3.215e-3
1.448,   3.384e-3
1.449,   3.679e-3
1.450,   3.693e-3
1.451,   3.883e-3
1.452,   4.095e-3
1.453,   4.441e-3
1.454,   4.433e-3
1.455,   4.704e-3
1.456,   5.022e-3
1.457,   5.299e-3
1.458,   5.375e-3
1.459,   5.670e-3
1.460,   6.194e-3
1.461,   6.348e-3
1.462,   6.513e-3
1.463,   6.899e-3
1.464,   7.486e-3
1.465,   7.402e-3
1.466,   7.842e-3
1.467,   8.207e-3
1.468,   8.598e-3
1.469,   8.627e-3
1.470,   9.070e-3
1.471,   9.413e-3
1.472,   9.624e-3
1.473,   9.786e-3
1.474,   9.986e-3
1.475,   1.006e-2
1.476,   1.007e-2
1.477,   1.007e-2
1.478,   1.007e-2
1.479,   1.007e-2
1.480,   1.007e-2
1.481,   1.007e-2
1.482,   1.007e-2
1.483,   1.007e-2
1.484,   1.007e-2
1.485,   1.007e-2
1.486,   1.007e-2
1.487,   1.007e-2
1.488,   1.007e-2
1.489,   1.007e-2
1.490,   1.007e-2
1.491,   1.007e-2
1.492,   1.007e-2
1.493,   1.007e-2
1.494,   1.007e-2
1.495,   1.007e-2
1.496,   1.007e-2
1.497,   1.007e-2
1.498,   1.007e-2
1.499,   1.007e-2
1.500,   1.007e-2
1.501,   1.007e-2