File: Experimental Records and Raw Data/batch5/final500/B5_BEST_500_#1_Full(#3)-259mV.txt
June 8, 2023   20:42:16
Linear Sweep Voltammetry
File: d:\current work\al_oer\electrochemical test data\batch 5\500\B5_BEST_500_#1_Full(#3)-259mV.txt
Data Source:  Experiment
Instrument Model:  CHI660E
Header:
Note:

Init E (V) = 0.891

Final E (V) = 1.555

Scan Rate (V/s) = 0.010
Sample Interval (V) = 0.001
Quiet Time (sec) = 2
Sensitivity (A/V) = 0.001
Comp R (ohm) = 4.2
UC R (ohm) = 1.0

Results:

Channel 1:
Ep = 1.541V
ip = 4.814e-3A
Ah = 7.700e-3C

Potential/V, Current/A
0.891,   3.714e-5
0.892,   3.851e-5
0.893,   3.850e-5
0.894,   3.851e-5
0.895,   3.835e-5
0.896,   3.822e-5
0.897,   3.790e-5
0.898,   3.780e-5
0.899,   3.768e-5
0.900,   3.748e-5
0.901,   3.728e-5
0.902,   3.700e-5
0.903,   3.694e-5
0.904,   3.672e-5
0.905,   3.652e-5
0.906,   3.636e-5
0.907,   3.628e-5
0.908,   3.608e-5
0.909,   3.588e-5
0.910,   3.574e-5
0.911,   3.567e-5
0.912,   3.551e-5
0.913,   3.531e-5
0.914,   3.513e-5
0.915,   3.506e-5
0.916,   3.492e-5
0.917,   3.473e-5
0.918,   3.459e-5
0.919,   3.450e-5
0.920,   3.437e-5
0.921,   3.424e-5
0.922,   3.408e-5
0.923,   3.393e-5
0.924,   3.389e-5
0.925,   3.379e-5
0.926,   3.359e-5
0.927,   3.348e-5
0.928,   3.344e-5
0.929,   3.329e-5
0.930,   3.311e-5
0.931,   3.307e-5
0.932,   3.303e-5
0.933,   3.287e-5
0.934,   3.282e-5
0.935,   3.259e-5
0.936,   3.262e-5
0.937,   3.250e-5
0.938,   3.236e-5
0.939,   3.230e-5
0.940,   3.231e-5
0.941,   3.207e-5
0.942,   3.209e-5
0.943,   3.191e-5
0.944,   3.183e-5
0.945,   3.184e-5
0.946,   3.169e-5
0.947,   3.160e-5
0.948,   3.166e-5
0.949,   3.152e-5
0.950,   3.142e-5
0.951,   3.127e-5
0.952,   3.129e-5
0.953,   3.127e-5
0.954,   3.116e-5
0.955,   3.106e-5
0.956,   3.102e-5
0.957,   3.103e-5
0.958,   3.100e-5
0.959,   3.080e-5
0.960,   3.078e-5
0.961,   3.080e-5
0.962,   3.070e-5
0.963,   3.055e-5
0.964,   3.062e-5
0.965,   3.059e-5
0.966,   3.049e-5
0.967,   3.034e-5
0.968,   3.033e-5
0.969,   3.036e-5
0.970,   3.029e-5
0.971,   3.023e-5
0.972,   3.014e-5
0.973,   3.016e-5
0.974,   3.013e-5
0.975,   3.004e-5
0.976,   3.006e-5
0.977,   3.004e-5
0.978,   2.998e-5
0.979,   2.993e-5
0.980,   2.982e-5
0.981,   2.981e-5
0.982,   2.983e-5
0.983,   2.971e-5
0.984,   2.962e-5
0.985,   2.963e-5
0.986,   2.969e-5
0.987,   2.961e-5
0.988,   2.958e-5
0.989,   2.951e-5
0.990,   2.958e-5
0.991,   2.948e-5
0.992,   2.945e-5
0.993,   2.940e-5
0.994,   2.946e-5
0.995,   2.940e-5
0.996,   2.936e-5
0.997,   2.936e-5
0.998,   2.930e-5
0.999,   2.929e-5
1.000,   2.925e-5
1.001,   2.927e-5
1.002,   2.922e-5
1.003,   2.926e-5
1.004,   2.919e-5
1.005,   2.912e-5
1.006,   2.916e-5
1.007,   2.918e-5
1.008,   2.912e-5
1.009,   2.910e-5
1.010,   2.908e-5
1.011,   2.920e-5
1.012,   2.912e-5
1.013,   2.901e-5
1.014,   2.900e-5
1.015,   2.913e-5
1.016,   2.904e-5
1.017,   2.903e-5
1.018,   2.900e-5
1.019,   2.909e-5
1.020,   2.902e-5
1.021,   2.900e-5
1.022,   2.899e-5
1.023,   2.905e-5
1.024,   2.902e-5
1.025,   2.900e-5
1.026,   2.896e-5
1.027,   2.906e-5
1.028,   2.903e-5
1.029,   2.907e-5
1.030,   2.893e-5
1.031,   2.902e-5
1.032,   2.913e-5
1.033,   2.905e-5
1.034,   2.902e-5
1.035,   2.906e-5
1.036,   2.906e-5
1.037,   2.906e-5
1.038,   2.904e-5
1.039,   2.904e-5
1.040,   2.911e-5
1.041,   2.910e-5
1.042,   2.906e-5
1.043,   2.908e-5
1.044,   2.914e-5
1.045,   2.911e-5
1.046,   2.911e-5
1.047,   2.912e-5
1.048,   2.915e-5
1.049,   2.918e-5
1.050,   2.909e-5
1.051,   2.913e-5
1.052,   2.922e-5
1.053,   2.922e-5
1.054,   2.925e-5
1.055,   2.919e-5
1.056,   2.928e-5
1.057,   2.930e-5
1.058,   2.929e-5
1.059,   2.930e-5
1.060,   2.943e-5
1.061,   2.944e-5
1.062,   2.942e-5
1.063,   2.939e-5
1.064,   2.944e-5
1.065,   2.951e-5
1.066,   2.953e-5
1.067,   2.941e-5
1.068,   2.954e-5
1.069,   2.961e-5
1.070,   2.960e-5
1.071,   2.964e-5
1.072,   2.970e-5
1.073,   2.976e-5
1.074,   2.970e-5
1.075,   2.969e-5
1.076,   2.977e-5
1.077,   2.984e-5
1.078,   2.987e-5
1.079,   2.990e-5
1.080,   2.995e-5
1.081,   2.996e-5
1.082,   3.008e-5
1.083,   2.998e-5
1.084,   3.003e-5
1.085,   3.014e-5
1.086,   3.020e-5
1.087,   3.019e-5
1.088,   3.021e-5
1.089,   3.031e-5
1.090,   3.040e-5
1.091,   3.034e-5
1.092,   3.039e-5
1.093,   3.045e-5
1.094,   3.064e-5
1.095,   3.052e-5
1.096,   3.052e-5
1.097,   3.063e-5
1.098,   3.075e-5
1.099,   3.076e-5
1.100,   3.076e-5
1.101,   3.079e-5
1.102,   3.094e-5
1.103,   3.093e-5
1.104,   3.098e-5
1.105,   3.102e-5
1.106,   3.111e-5
1.107,   3.123e-5
1.108,   3.123e-5
1.109,   3.124e-5
1.110,   3.136e-5
1.111,   3.140e-5
1.112,   3.142e-5
1.113,   3.148e-5
1.114,   3.158e-5
1.115,   3.166e-5
1.116,   3.167e-5
1.117,   3.173e-5
1.118,   3.184e-5
1.119,   3.190e-5
1.120,   3.194e-5
1.121,   3.198e-5
1.122,   3.205e-5
1.123,   3.219e-5
1.124,   3.223e-5
1.125,   3.223e-5
1.126,   3.233e-5
1.127,   3.246e-5
1.128,   3.249e-5
1.129,   3.253e-5
1.130,   3.260e-5
1.131,   3.275e-5
1.132,   3.278e-5
1.133,   3.282e-5
1.134,   3.290e-5
1.135,   3.301e-5
1.136,   3.309e-5
1.137,   3.313e-5
1.138,   3.315e-5
1.139,   3.331e-5
1.140,   3.340e-5
1.141,   3.342e-5
1.142,   3.349e-5
1.143,   3.362e-5
1.144,   3.371e-5
1.145,   3.373e-5
1.146,   3.380e-5
1.147,   3.393e-5
1.148,   3.405e-5
1.149,   3.409e-5
1.150,   3.417e-5
1.151,   3.423e-5
1.152,   3.431e-5
1.153,   3.442e-5
1.154,   3.448e-5
1.155,   3.458e-5
1.156,   3.477e-5
1.157,   3.477e-5
1.158,   3.487e-5
1.159,   3.492e-5
1.160,   3.511e-5
1.161,   3.516e-5
1.162,   3.525e-5
1.163,   3.530e-5
1.164,   3.547e-5
1.165,   3.557e-5
1.166,   3.571e-5
1.167,   3.563e-5
1.168,   3.586e-5
1.169,   3.605e-5
1.170,   3.601e-5
1.171,   3.607e-5
1.172,   3.622e-5
1.173,   3.633e-5
1.174,   3.642e-5
1.175,   3.648e-5
1.176,   3.660e-5
1.177,   3.675e-5
1.178,   3.680e-5
1.179,   3.689e-5
1.180,   3.699e-5
1.181,   3.720e-5
1.182,   3.729e-5
1.183,   3.731e-5
1.184,   3.744e-5
1.185,   3.769e-5
1.186,   3.766e-5
1.187,   3.783e-5
1.188,   3.792e-5
1.189,   3.814e-5
1.190,   3.815e-5
1.191,   3.833e-5
1.192,   3.839e-5
1.193,   3.859e-5
1.194,   3.867e-5
1.195,   3.879e-5
1.196,   3.886e-5
1.197,   3.907e-5
1.198,   3.920e-5
1.199,   3.924e-5
1.200,   3.933e-5
1.201,   3.956e-5
1.202,   3.961e-5
1.203,   3.973e-5
1.204,   3.985e-5
1.205,   4.004e-5
1.206,   4.023e-5
1.207,   4.041e-5
1.208,   4.039e-5
1.209,   4.048e-5
1.210,   4.076e-5
1.211,   4.081e-5
1.212,   4.095e-5
1.213,   4.108e-5
1.214,   4.135e-5
1.215,   4.147e-5
1.216,   4.145e-5
1.217,   4.173e-5
1.218,   4.192e-5
1.219,   4.207e-5
1.220,   4.227e-5
1.221,   4.221e-5
1.222,   4.248e-5
1.223,   4.264e-5
1.224,   4.275e-5
1.225,   4.288e-5
1.226,   4.310e-5
1.227,   4.327e-5
1.228,   4.338e-5
1.229,   4.351e-5
1.230,   4.370e-5
1.231,   4.389e-5
1.232,   4.402e-5
1.233,   4.419e-5
1.234,   4.431e-5
1.235,   4.462e-5
1.236,   4.471e-5
1.237,   4.488e-5
1.238,   4.501e-5
1.239,   4.531e-5
1.240,   4.541e-5
1.241,   4.558e-5
1.242,   4.573e-5
1.243,   4.601e-5
1.244,   4.615e-5
1.245,   4.633e-5
1.246,   4.651e-5
1.247,   4.673e-5
1.248,   4.692e-5
1.249,   4.717e-5
1.250,   4.718e-5
1.251,   4.749e-5
1.252,   4.785e-5
1.253,   4.784e-5
1.254,   4.806e-5
1.255,   4.826e-5
1.256,   4.842e-5
1.257,   4.867e-5
1.258,   4.887e-5
1.259,   4.903e-5
1.260,   4.934e-5
1.261,   4.950e-5
1.262,   4.983e-5
1.263,   4.977e-5
1.264,   5.022e-5
1.265,   5.037e-5
1.266,   5.055e-5
1.267,   5.073e-5
1.268,   5.107e-5
1.269,   5.127e-5
1.270,   5.147e-5
1.271,   5.176e-5
1.272,   5.203e-5
1.273,   5.217e-5
1.274,   5.243e-5
1.275,   5.268e-5
1.276,   5.282e-5
1.277,   5.322e-5
1.278,   5.332e-5
1.279,   5.354e-5
1.280,   5.394e-5
1.281,   5.416e-5
1.282,   5.436e-5
1.283,   5.456e-5
1.284,   5.482e-5
1.285,   5.502e-5
1.286,   5.531e-5
1.287,   5.552e-5
1.288,   5.574e-5
1.289,   5.616e-5
1.290,   5.638e-5
1.291,   5.662e-5
1.292,   5.681e-5
1.293,   5.724e-5
1.294,   5.745e-5
1.295,   5.770e-5
1.296,   5.792e-5
1.297,   5.838e-5
1.298,   5.854e-5
1.299,   5.886e-5
1.300,   5.909e-5
1.301,   5.959e-5
1.302,   5.980e-5
1.303,   6.007e-5
1.304,   6.033e-5
1.305,   6.051e-5
1.306,   6.092e-5
1.307,   6.115e-5
1.308,   6.151e-5
1.309,   6.179e-5
1.310,   6.221e-5
1.311,   6.248e-5
1.312,   6.273e-5
1.313,   6.303e-5
1.314,   6.344e-5
1.315,   6.371e-5
1.316,   6.406e-5
1.317,   6.445e-5
1.318,   6.477e-5
1.319,   6.506e-5
1.320,   6.533e-5
1.321,   6.564e-5
1.322,   6.619e-5
1.323,   6.639e-5
1.324,   6.675e-5
1.325,   6.703e-5
1.326,   6.758e-5
1.327,   6.781e-5
1.328,   6.819e-5
1.329,   6.853e-5
1.330,   6.911e-5
1.331,   6.934e-5
1.332,   6.969e-5
1.333,   7.002e-5
1.334,   7.060e-5
1.335,   7.088e-5
1.336,   7.119e-5
1.337,   7.174e-5
1.338,   7.213e-5
1.339,   7.248e-5
1.340,   7.298e-5
1.341,   7.335e-5
1.342,   7.363e-5
1.343,   7.428e-5
1.344,   7.472e-5
1.345,   7.516e-5
1.346,   7.549e-5
1.347,   7.614e-5
1.348,   7.653e-5
1.349,   7.700e-5
1.350,   7.737e-5
1.351,   7.813e-5
1.352,   7.841e-5
1.353,   7.895e-5
1.354,   7.925e-5
1.355,   8.000e-5
1.356,   8.030e-5
1.357,   8.096e-5
1.358,   8.128e-5
1.359,   8.196e-5
1.360,   8.251e-5
1.361,   8.302e-5
1.362,   8.358e-5
1.363,   8.410e-5
1.364,   8.474e-5
1.365,   8.528e-5
1.366,   8.587e-5
1.367,   8.648e-5
1.368,   8.717e-5
1.369,   8.778e-5
1.370,   8.838e-5
1.371,   8.895e-5
1.372,   8.977e-5
1.373,   9.042e-5
1.374,   9.123e-5
1.375,   9.166e-5
1.376,   9.253e-5
1.377,   9.320e-5
1.378,   9.396e-5
1.379,   9.464e-5
1.380,   9.563e-5
1.381,   9.622e-5
1.382,   9.718e-5
1.383,   9.784e-5
1.384,   9.882e-5
1.385,   9.974e-5
1.386,   1.006e-4
1.387,   1.014e-4
1.388,   1.025e-4
1.389,   1.035e-4
1.390,   1.045e-4
1.391,   1.054e-4
1.392,   1.065e-4
1.393,   1.077e-4
1.394,   1.087e-4
1.395,   1.098e-4
1.396,   1.107e-4
1.397,   1.123e-4
1.398,   1.135e-4
1.399,   1.148e-4
1.400,   1.157e-4
1.401,   1.174e-4
1.402,   1.187e-4
1.403,   1.202e-4
1.404,   1.215e-4
1.405,   1.234e-4
1.406,   1.248e-4
1.407,   1.265e-4
1.408,   1.281e-4
1.409,   1.302e-4
1.410,   1.320e-4
1.411,   1.340e-4
1.412,   1.359e-4
1.413,   1.381e-4
1.414,   1.404e-4
1.415,   1.426e-4
1.416,   1.450e-4
1.417,   1.475e-4
1.418,   1.505e-4
1.419,   1.532e-4
1.420,   1.559e-4
1.421,   1.588e-4
1.422,   1.624e-4
1.423,   1.656e-4
1.424,   1.692e-4
1.425,   1.727e-4
1.426,   1.769e-4
1.427,   1.808e-4
1.428,   1.852e-4
1.429,   1.893e-4
1.430,   1.945e-4
1.431,   1.992e-4
1.432,   2.047e-4
1.433,   2.097e-4
1.434,   2.159e-4
1.435,   2.219e-4
1.436,   2.287e-4
1.437,   2.349e-4
1.438,   2.428e-4
1.439,   2.501e-4
1.440,   2.581e-4
1.441,   2.663e-4
1.442,   2.753e-4
1.443,   2.849e-4
1.444,   2.944e-4
1.445,   3.049e-4
1.446,   3.155e-4
1.447,   3.273e-4
1.448,   3.390e-4
1.449,   3.519e-4
1.450,   3.650e-4
1.451,   3.798e-4
1.452,   3.943e-4
1.453,   4.104e-4
1.454,   4.261e-4
1.455,   4.440e-4
1.456,   4.618e-4
1.457,   4.817e-4
1.458,   5.009e-4
1.459,   5.231e-4
1.460,   5.445e-4
1.461,   5.683e-4
1.462,   5.921e-4
1.463,   6.192e-4
1.464,   6.461e-4
1.465,   6.742e-4
1.466,   7.034e-4
1.467,   7.351e-4
1.468,   7.679e-4
1.469,   8.023e-4
1.470,   8.379e-4
1.471,   8.744e-4
1.472,   9.153e-4
1.473,   9.571e-4
1.474,   9.997e-4
1.475,   1.043e-3
1.476,   1.092e-3
1.477,   1.140e-3
1.478,   1.190e-3
1.479,   1.240e-3
1.480,   1.296e-3
1.481,   1.351e-3
1.482,   1.413e-3
1.483,   1.470e-3
1.484,   1.535e-3
1.485,   1.601e-3
1.486,   1.671e-3
1.487,   1.739e-3
1.488,   1.810e-3
1.489,   1.888e-3
1.490,   1.967e-3
1.491,   2.044e-3
1.492,   2.122e-3
1.493,   2.208e-3
1.494,   2.289e-3
1.495,   2.376e-3
1.496,   2.458e-3
1.497,   2.551e-3
1.498,   2.636e-3
1.499,   2.732e-3
1.500,   2.821e-3
1.501,   2.919e-3
1.502,   3.010e-3
1.503,   3.109e-3
1.504,   3.198e-3
1.505,   3.300e-3
1.506,   3.378e-3
1.507,   3.473e-3
1.508,   3.546e-3
1.509,   3.644e-3
1.510,   3.716e-3
1.511,   3.801e-3
1.512,   3.879e-3
1.513,   3.967e-3
1.514,   4.048e-3
1.515,   4.125e-3
1.516,   4.200e-3
1.517,   4.272e-3
1.518,   4.352e-3
1.519,   4.420e-3
1.520,   4.488e-3
1.521,   4.535e-3
1.522,   4.611e-3
1.523,   4.651e-3
1.524,   4.705e-3
1.525,   4.734e-3
1.526,   4.784e-3
1.527,   4.806e-3
1.528,   4.843e-3
1.529,   4.844e-3
1.530,   4.885e-3
1.531,   4.906e-3
1.532,   4.931e-3
1.533,   4.899e-3
1.534,   4.905e-3
1.535,   4.879e-3
1.536,   4.873e-3
1.537,   4.841e-3
1.538,   4.816e-3
1.539,   4.781e-3
1.540,   4.752e-3
1.541,   4.696e-3
1.542,   4.648e-3
1.543,   4.599e-3
1.544,   4.540e-3
1.545,   4.477e-3
1.546,   4.403e-3
1.547,   4.340e-3
1.548,   4.274e-3
1.549,   4.203e-3
1.550,   4.123e-3
1.551,   4.067e-3
1.552,   4.001e-3
1.553,   3.938e-3
1.554,   3.859e-3
1.555,   3.803e-3