File: Experimental Records and Raw Data/batch5/final500/B5_BEST_500_#1_High_Quality(#27)-356mV.txt
June 9, 2023   16:13:33
Linear Sweep Voltammetry
File: d:\current work\al_oer\electrochemical test data\batch 5\500\B5_BEST_500_#1_High_Quality(#27)-356mV.txt
Data Source:  Experiment
Instrument Model:  CHI660E
Header:
Note:

Init E (V) = 0.890

Final E (V) = 1.618

Scan Rate (V/s) = 0.010
Sample Interval (V) = 0.001
Quiet Time (sec) = 2
Sensitivity (A/V) = 0.001
Comp R (ohm) = 5.5

Results:

Channel 1:

Potential/V, Current/A
0.890,   3.221e-5
0.891,   3.306e-5
0.892,   3.310e-5
0.893,   3.304e-5
0.894,   3.292e-5
0.895,   3.276e-5
0.896,   3.261e-5
0.897,   3.243e-5
0.898,   3.226e-5
0.899,   3.209e-5
0.900,   3.191e-5
0.901,   3.175e-5
0.902,   3.159e-5
0.903,   3.132e-5
0.904,   3.119e-5
0.905,   3.105e-5
0.906,   3.086e-5
0.907,   3.070e-5
0.908,   3.049e-5
0.909,   3.034e-5
0.910,   3.018e-5
0.911,   3.005e-5
0.912,   2.990e-5
0.913,   2.972e-5
0.914,   2.957e-5
0.915,   2.943e-5
0.916,   2.927e-5
0.917,   2.912e-5
0.918,   2.905e-5
0.919,   2.886e-5
0.920,   2.872e-5
0.921,   2.859e-5
0.922,   2.845e-5
0.923,   2.830e-5
0.924,   2.820e-5
0.925,   2.809e-5
0.926,   2.794e-5
0.927,   2.783e-5
0.928,   2.773e-5
0.929,   2.759e-5
0.930,   2.749e-5
0.931,   2.740e-5
0.932,   2.727e-5
0.933,   2.719e-5
0.934,   2.702e-5
0.935,   2.692e-5
0.936,   2.683e-5
0.937,   2.673e-5
0.938,   2.664e-5
0.939,   2.653e-5
0.940,   2.646e-5
0.941,   2.635e-5
0.942,   2.622e-5
0.943,   2.620e-5
0.944,   2.608e-5
0.945,   2.599e-5
0.946,   2.586e-5
0.947,   2.580e-5
0.948,   2.573e-5
0.949,   2.569e-5
0.950,   2.554e-5
0.951,   2.547e-5
0.952,   2.540e-5
0.953,   2.531e-5
0.954,   2.523e-5
0.955,   2.517e-5
0.956,   2.510e-5
0.957,   2.501e-5
0.958,   2.492e-5
0.959,   2.486e-5
0.960,   2.479e-5
0.961,   2.471e-5
0.962,   2.465e-5
0.963,   2.464e-5
0.964,   2.452e-5
0.965,   2.442e-5
0.966,   2.439e-5
0.967,   2.429e-5
0.968,   2.425e-5
0.969,   2.420e-5
0.970,   2.413e-5
0.971,   2.406e-5
0.972,   2.406e-5
0.973,   2.396e-5
0.974,   2.388e-5
0.975,   2.385e-5
0.976,   2.380e-5
0.977,   2.374e-5
0.978,   2.369e-5
0.979,   2.364e-5
0.980,   2.354e-5
0.981,   2.349e-5
0.982,   2.346e-5
0.983,   2.342e-5
0.984,   2.341e-5
0.985,   2.331e-5
0.986,   2.330e-5
0.987,   2.324e-5
0.988,   2.320e-5
0.989,   2.313e-5
0.990,   2.311e-5
0.991,   2.305e-5
0.992,   2.301e-5
0.993,   2.297e-5
0.994,   2.293e-5
0.995,   2.291e-5
0.996,   2.285e-5
0.997,   2.279e-5
0.998,   2.274e-5
0.999,   2.273e-5
1.000,   2.273e-5
1.001,   2.264e-5
1.002,   2.259e-5
1.003,   2.258e-5
1.004,   2.251e-5
1.005,   2.251e-5
1.006,   2.249e-5
1.007,   2.243e-5
1.008,   2.237e-5
1.009,   2.235e-5
1.010,   2.238e-5
1.011,   2.231e-5
1.012,   2.227e-5
1.013,   2.225e-5
1.014,   2.224e-5
1.015,   2.218e-5
1.016,   2.216e-5
1.017,   2.214e-5
1.018,   2.209e-5
1.019,   2.205e-5
1.020,   2.205e-5
1.021,   2.202e-5
1.022,   2.198e-5
1.023,   2.196e-5
1.024,   2.195e-5
1.025,   2.191e-5
1.026,   2.190e-5
1.027,   2.190e-5
1.028,   2.185e-5
1.029,   2.182e-5
1.030,   2.181e-5
1.031,   2.179e-5
1.032,   2.177e-5
1.033,   2.174e-5
1.034,   2.174e-5
1.035,   2.164e-5
1.036,   2.166e-5
1.037,   2.168e-5
1.038,   2.167e-5
1.039,   2.160e-5
1.040,   2.163e-5
1.041,   2.159e-5
1.042,   2.159e-5
1.043,   2.158e-5
1.044,   2.156e-5
1.045,   2.156e-5
1.046,   2.158e-5
1.047,   2.150e-5
1.048,   2.150e-5
1.049,   2.149e-5
1.050,   2.150e-5
1.051,   2.149e-5
1.052,   2.150e-5
1.053,   2.148e-5
1.054,   2.144e-5
1.055,   2.145e-5
1.056,   2.144e-5
1.057,   2.143e-5
1.058,   2.143e-5
1.059,   2.143e-5
1.060,   2.140e-5
1.061,   2.141e-5
1.062,   2.139e-5
1.063,   2.140e-5
1.064,   2.141e-5
1.065,   2.142e-5
1.066,   2.140e-5
1.067,   2.138e-5
1.068,   2.142e-5
1.069,   2.136e-5
1.070,   2.137e-5
1.071,   2.139e-5
1.072,   2.139e-5
1.073,   2.136e-5
1.074,   2.138e-5
1.075,   2.142e-5
1.076,   2.135e-5
1.077,   2.135e-5
1.078,   2.139e-5
1.079,   2.137e-5
1.080,   2.138e-5
1.081,   2.142e-5
1.082,   2.138e-5
1.083,   2.139e-5
1.084,   2.139e-5
1.085,   2.143e-5
1.086,   2.141e-5
1.087,   2.141e-5
1.088,   2.143e-5
1.089,   2.140e-5
1.090,   2.144e-5
1.091,   2.148e-5
1.092,   2.145e-5
1.093,   2.141e-5
1.094,   2.143e-5
1.095,   2.150e-5
1.096,   2.143e-5
1.097,   2.147e-5
1.098,   2.149e-5
1.099,   2.150e-5
1.100,   2.149e-5
1.101,   2.152e-5
1.102,   2.153e-5
1.103,   2.158e-5
1.104,   2.155e-5
1.105,   2.153e-5
1.106,   2.159e-5
1.107,   2.159e-5
1.108,   2.161e-5
1.109,   2.162e-5
1.110,   2.161e-5
1.111,   2.164e-5
1.112,   2.167e-5
1.113,   2.168e-5
1.114,   2.170e-5
1.115,   2.169e-5
1.116,   2.173e-5
1.117,   2.177e-5
1.118,   2.172e-5
1.119,   2.179e-5
1.120,   2.180e-5
1.121,   2.182e-5
1.122,   2.182e-5
1.123,   2.181e-5
1.124,   2.184e-5
1.125,   2.192e-5
1.126,   2.191e-5
1.127,   2.189e-5
1.128,   2.190e-5
1.129,   2.196e-5
1.130,   2.199e-5
1.131,   2.197e-5
1.132,   2.199e-5
1.133,   2.206e-5
1.134,   2.210e-5
1.135,   2.210e-5
1.136,   2.213e-5
1.137,   2.212e-5
1.138,   2.214e-5
1.139,   2.217e-5
1.140,   2.219e-5
1.141,   2.223e-5
1.142,   2.226e-5
1.143,   2.227e-5
1.144,   2.233e-5
1.145,   2.232e-5
1.146,   2.230e-5
1.147,   2.237e-5
1.148,   2.239e-5
1.149,   2.243e-5
1.150,   2.244e-5
1.151,   2.247e-5
1.152,   2.251e-5
1.153,   2.254e-5
1.154,   2.258e-5
1.155,   2.258e-5
1.156,   2.261e-5
1.157,   2.265e-5
1.158,   2.268e-5
1.159,   2.267e-5
1.160,   2.274e-5
1.161,   2.277e-5
1.162,   2.279e-5
1.163,   2.281e-5
1.164,   2.286e-5
1.165,   2.290e-5
1.166,   2.294e-5
1.167,   2.295e-5
1.168,   2.305e-5
1.169,   2.297e-5
1.170,   2.304e-5
1.171,   2.313e-5
1.172,   2.305e-5
1.173,   2.314e-5
1.174,   2.324e-5
1.175,   2.322e-5
1.176,   2.320e-5
1.177,   2.325e-5
1.178,   2.329e-5
1.179,   2.340e-5
1.180,   2.339e-5
1.181,   2.343e-5
1.182,   2.342e-5
1.183,   2.347e-5
1.184,   2.348e-5
1.185,   2.352e-5
1.186,   2.358e-5
1.187,   2.363e-5
1.188,   2.365e-5
1.189,   2.369e-5
1.190,   2.371e-5
1.191,   2.377e-5
1.192,   2.380e-5
1.193,   2.385e-5
1.194,   2.390e-5
1.195,   2.397e-5
1.196,   2.394e-5
1.197,   2.395e-5
1.198,   2.404e-5
1.199,   2.407e-5
1.200,   2.413e-5
1.201,   2.411e-5
1.202,   2.420e-5
1.203,   2.423e-5
1.204,   2.427e-5
1.205,   2.432e-5
1.206,   2.443e-5
1.207,   2.437e-5
1.208,   2.442e-5
1.209,   2.446e-5
1.210,   2.451e-5
1.211,   2.456e-5
1.212,   2.462e-5
1.213,   2.472e-5
1.214,   2.468e-5
1.215,   2.477e-5
1.216,   2.481e-5
1.217,   2.478e-5
1.218,   2.490e-5
1.219,   2.501e-5
1.220,   2.500e-5
1.221,   2.506e-5
1.222,   2.513e-5
1.223,   2.515e-5
1.224,   2.520e-5
1.225,   2.525e-5
1.226,   2.532e-5
1.227,   2.535e-5
1.228,   2.541e-5
1.229,   2.547e-5
1.230,   2.553e-5
1.231,   2.557e-5
1.232,   2.564e-5
1.233,   2.563e-5
1.234,   2.571e-5
1.235,   2.579e-5
1.236,   2.582e-5
1.237,   2.582e-5
1.238,   2.591e-5
1.239,   2.597e-5
1.240,   2.601e-5
1.241,   2.608e-5
1.242,   2.617e-5
1.243,   2.619e-5
1.244,   2.625e-5
1.245,   2.633e-5
1.246,   2.641e-5
1.247,   2.640e-5
1.248,   2.647e-5
1.249,   2.659e-5
1.250,   2.665e-5
1.251,   2.663e-5
1.252,   2.671e-5
1.253,   2.684e-5
1.254,   2.679e-5
1.255,   2.696e-5
1.256,   2.696e-5
1.257,   2.704e-5
1.258,   2.708e-5
1.259,   2.715e-5
1.260,   2.729e-5
1.261,   2.725e-5
1.262,   2.739e-5
1.263,   2.744e-5
1.264,   2.744e-5
1.265,   2.751e-5
1.266,   2.768e-5
1.267,   2.764e-5
1.268,   2.774e-5
1.269,   2.779e-5
1.270,   2.802e-5
1.271,   2.797e-5
1.272,   2.802e-5
1.273,   2.812e-5
1.274,   2.823e-5
1.275,   2.827e-5
1.276,   2.831e-5
1.277,   2.842e-5
1.278,   2.846e-5
1.279,   2.856e-5
1.280,   2.866e-5
1.281,   2.870e-5
1.282,   2.885e-5
1.283,   2.890e-5
1.284,   2.893e-5
1.285,   2.902e-5
1.286,   2.909e-5
1.287,   2.926e-5
1.288,   2.926e-5
1.289,   2.937e-5
1.290,   2.947e-5
1.291,   2.953e-5
1.292,   2.962e-5
1.293,   2.970e-5
1.294,   2.978e-5
1.295,   2.987e-5
1.296,   3.000e-5
1.297,   3.008e-5
1.298,   3.017e-5
1.299,   3.025e-5
1.300,   3.034e-5
1.301,   3.044e-5
1.302,   3.054e-5
1.303,   3.061e-5
1.304,   3.071e-5
1.305,   3.074e-5
1.306,   3.089e-5
1.307,   3.099e-5
1.308,   3.115e-5
1.309,   3.122e-5
1.310,   3.130e-5
1.311,   3.142e-5
1.312,   3.152e-5
1.313,   3.159e-5
1.314,   3.170e-5
1.315,   3.182e-5
1.316,   3.190e-5
1.317,   3.205e-5
1.318,   3.216e-5
1.319,   3.226e-5
1.320,   3.241e-5
1.321,   3.253e-5
1.322,   3.263e-5
1.323,   3.273e-5
1.324,   3.285e-5
1.325,   3.300e-5
1.326,   3.308e-5
1.327,   3.326e-5
1.328,   3.339e-5
1.329,   3.343e-5
1.330,   3.356e-5
1.331,   3.369e-5
1.332,   3.379e-5
1.333,   3.391e-5
1.334,   3.407e-5
1.335,   3.418e-5
1.336,   3.430e-5
1.337,   3.443e-5
1.338,   3.460e-5
1.339,   3.469e-5
1.340,   3.484e-5
1.341,   3.502e-5
1.342,   3.513e-5
1.343,   3.528e-5
1.344,   3.543e-5
1.345,   3.556e-5
1.346,   3.570e-5
1.347,   3.585e-5
1.348,   3.598e-5
1.349,   3.612e-5
1.350,   3.624e-5
1.351,   3.641e-5
1.352,   3.656e-5
1.353,   3.669e-5
1.354,   3.686e-5
1.355,   3.704e-5
1.356,   3.719e-5
1.357,   3.733e-5
1.358,   3.757e-5
1.359,   3.772e-5
1.360,   3.791e-5
1.361,   3.811e-5
1.362,   3.829e-5
1.363,   3.843e-5
1.364,   3.859e-5
1.365,   3.885e-5
1.366,   3.905e-5
1.367,   3.924e-5
1.368,   3.944e-5
1.369,   3.965e-5
1.370,   3.986e-5
1.371,   4.011e-5
1.372,   4.038e-5
1.373,   4.064e-5
1.374,   4.070e-5
1.375,   4.105e-5
1.376,   4.134e-5
1.377,   4.150e-5
1.378,   4.181e-5
1.379,   4.212e-5
1.380,   4.234e-5
1.381,   4.259e-5
1.382,   4.285e-5
1.383,   4.318e-5
1.384,   4.348e-5
1.385,   4.375e-5
1.386,   4.407e-5
1.387,   4.435e-5
1.388,   4.471e-5
1.389,   4.508e-5
1.390,   4.539e-5
1.391,   4.574e-5
1.392,   4.616e-5
1.393,   4.659e-5
1.394,   4.685e-5
1.395,   4.729e-5
1.396,   4.770e-5
1.397,   4.811e-5
1.398,   4.859e-5
1.399,   4.909e-5
1.400,   4.959e-5
1.401,   5.011e-5
1.402,   5.052e-5
1.403,   5.115e-5
1.404,   5.168e-5
1.405,   5.227e-5
1.406,   5.279e-5
1.407,   5.339e-5
1.408,   5.401e-5
1.409,   5.470e-5
1.410,   5.549e-5
1.411,   5.619e-5
1.412,   5.676e-5
1.413,   5.767e-5
1.414,   5.848e-5
1.415,   5.925e-5
1.416,   6.017e-5
1.417,   6.113e-5
1.418,   6.197e-5
1.419,   6.312e-5
1.420,   6.421e-5
1.421,   6.540e-5
1.422,   6.651e-5
1.423,   6.792e-5
1.424,   6.914e-5
1.425,   7.033e-5
1.426,   7.180e-5
1.427,   7.334e-5
1.428,   7.490e-5
1.429,   7.655e-5
1.430,   7.837e-5
1.431,   8.004e-5
1.432,   8.202e-5
1.433,   8.397e-5
1.434,   8.607e-5
1.435,   8.809e-5
1.436,   9.038e-5
1.437,   9.283e-5
1.438,   9.518e-5
1.439,   9.799e-5
1.440,   1.007e-4
1.441,   1.035e-4
1.442,   1.065e-4
1.443,   1.096e-4
1.444,   1.129e-4
1.445,   1.162e-4
1.446,   1.198e-4
1.447,   1.236e-4
1.448,   1.275e-4
1.449,   1.315e-4
1.450,   1.357e-4
1.451,   1.401e-4
1.452,   1.446e-4
1.453,   1.494e-4
1.454,   1.545e-4
1.455,   1.597e-4
1.456,   1.650e-4
1.457,   1.708e-4
1.458,   1.764e-4
1.459,   1.823e-4
1.460,   1.886e-4
1.461,   1.950e-4
1.462,   2.017e-4
1.463,   2.085e-4
1.464,   2.155e-4
1.465,   2.230e-4
1.466,   2.305e-4
1.467,   2.386e-4
1.468,   2.470e-4
1.469,   2.554e-4
1.470,   2.640e-4
1.471,   2.730e-4
1.472,   2.822e-4
1.473,   2.915e-4
1.474,   3.014e-4
1.475,   3.117e-4
1.476,   3.220e-4
1.477,   3.324e-4
1.478,   3.433e-4
1.479,   3.545e-4
1.480,   3.659e-4
1.481,   3.778e-4
1.482,   3.899e-4
1.483,   4.021e-4
1.484,   4.142e-4
1.485,   4.272e-4
1.486,   4.400e-4
1.487,   4.533e-4
1.488,   4.672e-4
1.489,   4.809e-4
1.490,   4.947e-4
1.491,   5.086e-4
1.492,   5.231e-4
1.493,   5.375e-4
1.494,   5.524e-4
1.495,   5.680e-4
1.496,   5.831e-4
1.497,   5.982e-4
1.498,   6.134e-4
1.499,   6.290e-4
1.500,   6.446e-4
1.501,   6.607e-4
1.502,   6.771e-4
1.503,   6.935e-4
1.504,   7.098e-4
1.505,   7.259e-4
1.506,   7.426e-4
1.507,   7.591e-4
1.508,   7.758e-4
1.509,   7.930e-4
1.510,   8.101e-4
1.511,   8.266e-4
1.512,   8.436e-4
1.513,   8.606e-4
1.514,   8.770e-4
1.515,   8.943e-4
1.516,   9.123e-4
1.517,   9.298e-4
1.518,   9.464e-4
1.519,   9.638e-4
1.520,   9.807e-4
1.521,   9.970e-4
1.522,   1.015e-3
1.523,   1.034e-3
1.524,   1.051e-3
1.525,   1.068e-3
1.526,   1.086e-3
1.527,   1.103e-3
1.528,   1.121e-3
1.529,   1.138e-3
1.530,   1.157e-3
1.531,   1.174e-3
1.532,   1.191e-3
1.533,   1.208e-3
1.534,   1.225e-3
1.535,   1.242e-3
1.536,   1.260e-3
1.537,   1.278e-3
1.538,   1.295e-3
1.539,   1.313e-3
1.540,   1.331e-3
1.541,   1.348e-3
1.542,   1.365e-3
1.543,   1.382e-3
1.544,   1.400e-3
1.545,   1.416e-3
1.546,   1.432e-3
1.547,   1.447e-3
1.548,   1.463e-3
1.549,   1.479e-3
1.550,   1.495e-3
1.551,   1.513e-3
1.552,   1.527e-3
1.553,   1.545e-3
1.554,   1.559e-3
1.555,   1.572e-3
1.556,   1.589e-3
1.557,   1.607e-3
1.558,   1.620e-3
1.559,   1.632e-3
1.560,   1.643e-3
1.561,   1.654e-3
1.562,   1.669e-3
1.563,   1.686e-3
1.564,   1.701e-3
1.565,   1.713e-3
1.566,   1.723e-3
1.567,   1.739e-3
1.568,   1.749e-3
1.569,   1.762e-3
1.570,   1.776e-3
1.571,   1.789e-3
1.572,   1.800e-3
1.573,   1.810e-3
1.574,   1.823e-3
1.575,   1.835e-3
1.576,   1.848e-3
1.577,   1.862e-3
1.578,   1.875e-3
1.579,   1.884e-3
1.580,   1.895e-3
1.581,   1.905e-3
1.582,   1.916e-3
1.583,   1.925e-3
1.584,   1.935e-3
1.585,   1.945e-3
1.586,   1.956e-3
1.587,   1.963e-3
1.588,   1.972e-3
1.589,   1.980e-3
1.590,   1.989e-3
1.591,   2.002e-3
1.592,   2.009e-3
1.593,   2.016e-3
1.594,   2.023e-3
1.595,   2.029e-3
1.596,   2.036e-3
1.597,   2.046e-3
1.598,   2.060e-3
1.599,   2.068e-3
1.600,   2.075e-3
1.601,   2.082e-3
1.602,   2.092e-3
1.603,   2.098e-3
1.604,   2.103e-3
1.605,   2.109e-3
1.606,   2.117e-3
1.607,   2.124e-3
1.608,   2.130e-3
1.609,   2.135e-3
1.610,   2.141e-3
1.611,   2.150e-3
1.612,   2.159e-3
1.613,   2.164e-3
1.614,   2.168e-3
1.615,   2.176e-3
1.616,   2.184e-3
1.617,   2.190e-3
1.618,   2.195e-3