File: Experimental Records and Raw Data/batch4/final400/B4_BEST_400_#2_High_Quality(#18)-217mV.txt
Mar. 27, 2023   17:18:49
Linear Sweep Voltammetry
File: d:\current work\al_oer\electrochemical test data\batch 4\400\B4_BEST_400_#2_High_Quality(#18)-217mV.txt
Data Source:  Experiment
Instrument Model:  CHI660E
Header:
Note:

Init E (V) = 1.067

Final E (V) = 1.466

Scan Rate (V/s) = 0.010
Sample Interval (V) = 0.001
Quiet Time (sec) = 2
Sensitivity (A/V) = 0.001
Comp R (ohm) = 6.4

Results:

Channel 1:

Potential/V, Current/A
1.067,   4.213e-5
1.068,   4.359e-5
1.069,   4.174e-5
1.070,   3.951e-5
1.071,   3.792e-5
1.072,   4.100e-5
1.073,   3.589e-5
1.074,   3.346e-5
1.075,   3.259e-5
1.076,   3.239e-5
1.077,   3.081e-5
1.078,   3.036e-5
1.079,   2.886e-5
1.080,   2.806e-5
1.081,   2.743e-5
1.082,   2.702e-5
1.083,   2.744e-5
1.084,   2.638e-5
1.085,   2.557e-5
1.086,   2.570e-5
1.087,   2.467e-5
1.088,   2.524e-5
1.089,   2.394e-5
1.090,   2.330e-5
1.091,   2.288e-5
1.092,   2.274e-5
1.093,   2.233e-5
1.094,   2.198e-5
1.095,   2.177e-5
1.096,   2.155e-5
1.097,   2.158e-5
1.098,   2.195e-5
1.099,   2.087e-5
1.100,   2.074e-5
1.101,   2.055e-5
1.102,   2.037e-5
1.103,   2.018e-5
1.104,   2.025e-5
1.105,   2.054e-5
1.106,   2.031e-5
1.107,   1.960e-5
1.108,   1.946e-5
1.109,   1.939e-5
1.110,   1.923e-5
1.111,   1.916e-5
1.112,   1.905e-5
1.113,   1.905e-5
1.114,   1.910e-5
1.115,   1.884e-5
1.116,   1.943e-5
1.117,   1.872e-5
1.118,   1.852e-5
1.119,   1.852e-5
1.120,   1.847e-5
1.121,   1.837e-5
1.122,   1.840e-5
1.123,   1.831e-5
1.124,   1.825e-5
1.125,   1.835e-5
1.126,   1.865e-5
1.127,   1.888e-5
1.128,   1.814e-5
1.129,   1.808e-5
1.130,   1.810e-5
1.131,   1.802e-5
1.132,   1.799e-5
1.133,   1.801e-5
1.134,   1.786e-5
1.135,   1.802e-5
1.136,   1.795e-5
1.137,   1.788e-5
1.138,   1.741e-5
1.139,   1.773e-5
1.140,   1.807e-5
1.141,   1.791e-5
1.142,   1.793e-5
1.143,   1.794e-5
1.144,   1.794e-5
1.145,   1.795e-5
1.146,   1.800e-5
1.147,   1.803e-5
1.148,   1.806e-5
1.149,   1.903e-5
1.150,   1.826e-5
1.151,   1.796e-5
1.152,   1.797e-5
1.153,   1.789e-5
1.154,   1.793e-5
1.155,   1.799e-5
1.156,   1.809e-5
1.157,   1.799e-5
1.158,   1.793e-5
1.159,   1.796e-5
1.160,   1.810e-5
1.161,   1.830e-5
1.162,   1.819e-5
1.163,   1.796e-5
1.164,   1.867e-5
1.165,   1.829e-5
1.166,   1.800e-5
1.167,   1.809e-5
1.168,   1.831e-5
1.169,   1.805e-5
1.170,   1.815e-5
1.171,   1.807e-5
1.172,   1.810e-5
1.173,   1.843e-5
1.174,   1.851e-5
1.175,   1.819e-5
1.176,   1.812e-5
1.177,   1.816e-5
1.178,   1.828e-5
1.179,   1.821e-5
1.180,   1.821e-5
1.181,   1.825e-5
1.182,   1.849e-5
1.183,   1.858e-5
1.184,   1.833e-5
1.185,   1.821e-5
1.186,   1.832e-5
1.187,   1.842e-5
1.188,   1.840e-5
1.189,   1.830e-5
1.190,   1.827e-5
1.191,   1.865e-5
1.192,   1.900e-5
1.193,   1.865e-5
1.194,   1.848e-5
1.195,   1.843e-5
1.196,   1.872e-5
1.197,   1.858e-5
1.198,   1.840e-5
1.199,   1.841e-5
1.200,   1.838e-5
1.201,   1.835e-5
1.202,   1.842e-5
1.203,   1.836e-5
1.204,   1.841e-5
1.205,   1.848e-5
1.206,   1.836e-5
1.207,   1.841e-5
1.208,   1.841e-5
1.209,   1.846e-5
1.210,   1.863e-5
1.211,   1.854e-5
1.212,   1.845e-5
1.213,   1.852e-5
1.214,   1.860e-5
1.215,   1.888e-5
1.216,   1.837e-5
1.217,   1.837e-5
1.218,   1.848e-5
1.219,   1.849e-5
1.220,   1.840e-5
1.221,   1.848e-5
1.222,   1.836e-5
1.223,   1.837e-5
1.224,   1.840e-5
1.225,   1.904e-5
1.226,   1.875e-5
1.227,   1.837e-5
1.228,   1.846e-5
1.229,   1.841e-5
1.230,   1.865e-5
1.231,   1.902e-5
1.232,   1.840e-5
1.233,   1.826e-5
1.234,   1.833e-5
1.235,   1.827e-5
1.236,   1.827e-5
1.237,   1.834e-5
1.238,   1.822e-5
1.239,   1.823e-5
1.240,   1.835e-5
1.241,   1.827e-5
1.242,   1.831e-5
1.243,   1.822e-5
1.244,   1.861e-5
1.245,   1.836e-5
1.246,   1.819e-5
1.247,   1.827e-5
1.248,   1.827e-5
1.249,   1.824e-5
1.250,   1.859e-5
1.251,   1.820e-5
1.252,   1.822e-5
1.253,   1.824e-5
1.254,   1.827e-5
1.255,   1.828e-5
1.256,   1.824e-5
1.257,   1.838e-5
1.258,   1.846e-5
1.259,   1.815e-5
1.260,   1.820e-5
1.261,   1.828e-5
1.262,   1.826e-5
1.263,   1.834e-5
1.264,   1.833e-5
1.265,   1.857e-5
1.266,   1.848e-5
1.267,   1.825e-5
1.268,   1.823e-5
1.269,   1.848e-5
1.270,   1.827e-5
1.271,   1.842e-5
1.272,   1.872e-5
1.273,   1.843e-5
1.274,   1.844e-5
1.275,   1.838e-5
1.276,   1.851e-5
1.277,   1.867e-5
1.278,   1.837e-5
1.279,   1.846e-5
1.280,   1.850e-5
1.281,   1.844e-5
1.282,   1.852e-5
1.283,   1.851e-5
1.284,   1.850e-5
1.285,   1.870e-5
1.286,   1.870e-5
1.287,   1.871e-5
1.288,   1.869e-5
1.289,   1.871e-5
1.290,   1.877e-5
1.291,   1.871e-5
1.292,   1.889e-5
1.293,   1.894e-5
1.294,   1.897e-5
1.295,   1.895e-5
1.296,   1.905e-5
1.297,   1.903e-5
1.298,   1.913e-5
1.299,   1.914e-5
1.300,   1.920e-5
1.301,   1.959e-5
1.302,   1.942e-5
1.303,   1.954e-5
1.304,   1.946e-5
1.305,   1.962e-5
1.306,   1.966e-5
1.307,   1.970e-5
1.308,   1.999e-5
1.309,   2.003e-5
1.310,   1.986e-5
1.311,   2.004e-5
1.312,   2.018e-5
1.313,   2.034e-5
1.314,   2.038e-5
1.315,   2.046e-5
1.316,   2.066e-5
1.317,   2.073e-5
1.318,   2.084e-5
1.319,   2.097e-5
1.320,   2.109e-5
1.321,   2.117e-5
1.322,   2.145e-5
1.323,   2.154e-5
1.324,   2.172e-5
1.325,   2.198e-5
1.326,   2.200e-5
1.327,   2.230e-5
1.328,   2.266e-5
1.329,   2.293e-5
1.330,   2.307e-5
1.331,   2.329e-5
1.332,   2.344e-5
1.333,   2.386e-5
1.334,   2.410e-5
1.335,   2.446e-5
1.336,   2.476e-5
1.337,   2.523e-5
1.338,   2.565e-5
1.339,   2.583e-5
1.340,   2.625e-5
1.341,   2.668e-5
1.342,   2.702e-5
1.343,   2.766e-5
1.344,   2.816e-5
1.345,   2.863e-5
1.346,   2.919e-5
1.347,   2.977e-5
1.348,   3.053e-5
1.349,   3.121e-5
1.350,   3.196e-5
1.351,   3.272e-5
1.352,   3.351e-5
1.353,   3.447e-5
1.354,   3.551e-5
1.355,   3.639e-5
1.356,   3.743e-5
1.357,   3.843e-5
1.358,   3.940e-5
1.359,   4.084e-5
1.360,   4.234e-5
1.361,   4.397e-5
1.362,   4.536e-5
1.363,   4.717e-5
1.364,   4.864e-5
1.365,   5.002e-5
1.366,   5.184e-5
1.367,   5.408e-5
1.368,   5.616e-5
1.369,   5.831e-5
1.370,   6.055e-5
1.371,   6.271e-5
1.372,   6.551e-5
1.373,   6.844e-5
1.374,   7.090e-5
1.375,   7.421e-5
1.376,   7.776e-5
1.377,   8.113e-5
1.378,   8.474e-5
1.379,   8.846e-5
1.380,   9.255e-5
1.381,   9.668e-5
1.382,   1.014e-4
1.383,   1.063e-4
1.384,   1.112e-4
1.385,   1.163e-4
1.386,   1.223e-4
1.387,   1.279e-4
1.388,   1.340e-4
1.389,   1.404e-4
1.390,   1.470e-4
1.391,   1.547e-4
1.392,   1.627e-4
1.393,   1.706e-4
1.394,   1.789e-4
1.395,   1.873e-4
1.396,   1.959e-4
1.397,   2.060e-4
1.398,   2.161e-4
1.399,   2.274e-4
1.400,   2.383e-4
1.401,   2.499e-4
1.402,   2.622e-4
1.403,   2.750e-4
1.404,   2.885e-4
1.405,   3.031e-4
1.406,   3.181e-4
1.407,   3.342e-4
1.408,   3.501e-4
1.409,   3.672e-4
1.410,   3.854e-4
1.411,   4.041e-4
1.412,   4.234e-4
1.413,   4.441e-4
1.414,   4.655e-4
1.415,   4.873e-4
1.416,   5.118e-4
1.417,   5.364e-4
1.418,   5.621e-4
1.419,   5.878e-4
1.420,   6.160e-4
1.421,   6.450e-4
1.422,   6.747e-4
1.423,   7.067e-4
1.424,   7.401e-4
1.425,   7.730e-4
1.426,   8.081e-4
1.427,   8.448e-4
1.428,   8.829e-4
1.429,   9.230e-4
1.430,   9.632e-4
1.431,   1.006e-3
1.432,   1.051e-3
1.433,   1.096e-3
1.434,   1.142e-3
1.435,   1.190e-3
1.436,   1.239e-3
1.437,   1.289e-3
1.438,   1.343e-3
1.439,   1.399e-3
1.440,   1.454e-3
1.441,   1.513e-3
1.442,   1.588e-3
1.443,   1.647e-3
1.444,   1.707e-3
1.445,   1.775e-3
1.446,   1.841e-3
1.447,   1.911e-3
1.448,   1.986e-3
1.449,   2.054e-3
1.450,   2.124e-3
1.451,   2.199e-3
1.452,   2.281e-3
1.453,   2.360e-3
1.454,   2.444e-3
1.455,   2.546e-3
1.456,   2.637e-3
1.457,   2.719e-3
1.458,   2.797e-3
1.459,   2.903e-3
1.460,   3.077e-3
1.461,   3.172e-3
1.462,   3.266e-3
1.463,   3.426e-3
1.464,   3.750e-3
1.465,   3.818e-3
1.466,   3.883e-3