File: Experimental Records and Raw Data/batch4/final400/B4_BEST_400_#5_Full-210mV.txt
Mar. 27, 2023   14:21:23
Linear Sweep Voltammetry
File: d:\current work\al_oer\electrochemical test data\batch 4\400\B4_BEST_400_#5_Full-210mV.txt
Data Source:  Experiment
Instrument Model:  CHI660E
Header:
Note:

Init E (V) = 1.081

Final E (V) = 1.508

Scan Rate (V/s) = 0.010
Sample Interval (V) = 0.001
Quiet Time (sec) = 2
Sensitivity (A/V) = 0.001
Comp R (ohm) = 5.8

Results:

Channel 1:

Potential/V, Current/A
1.081,   9.747e-5
1.082,   9.538e-5
1.083,   9.075e-5
1.084,   8.619e-5
1.085,   8.210e-5
1.086,   7.847e-5
1.087,   7.519e-5
1.088,   7.228e-5
1.089,   6.970e-5
1.090,   6.734e-5
1.091,   6.522e-5
1.092,   6.324e-5
1.093,   6.145e-5
1.094,   5.980e-5
1.095,   5.832e-5
1.096,   5.700e-5
1.097,   5.573e-5
1.098,   5.464e-5
1.099,   5.354e-5
1.100,   5.244e-5
1.101,   5.159e-5
1.102,   5.070e-5
1.103,   4.976e-5
1.104,   4.900e-5
1.105,   4.824e-5
1.106,   4.755e-5
1.107,   4.692e-5
1.108,   4.631e-5
1.109,   4.575e-5
1.110,   4.519e-5
1.111,   4.462e-5
1.112,   4.422e-5
1.113,   4.369e-5
1.114,   4.330e-5
1.115,   4.292e-5
1.116,   4.246e-5
1.117,   4.210e-5
1.118,   4.168e-5
1.119,   4.132e-5
1.120,   4.104e-5
1.121,   4.070e-5
1.122,   4.040e-5
1.123,   4.013e-5
1.124,   3.984e-5
1.125,   3.959e-5
1.126,   3.934e-5
1.127,   3.914e-5
1.128,   3.891e-5
1.129,   3.863e-5
1.130,   3.844e-5
1.131,   3.825e-5
1.132,   3.801e-5
1.133,   3.790e-5
1.134,   3.774e-5
1.135,   3.757e-5
1.136,   3.745e-5
1.137,   3.728e-5
1.138,   3.715e-5
1.139,   3.704e-5
1.140,   3.690e-5
1.141,   3.681e-5
1.142,   3.664e-5
1.143,   3.647e-5
1.144,   3.641e-5
1.145,   3.628e-5
1.146,   3.619e-5
1.147,   3.611e-5
1.148,   3.598e-5
1.149,   3.591e-5
1.150,   3.580e-5
1.151,   3.568e-5
1.152,   3.570e-5
1.153,   3.562e-5
1.154,   3.550e-5
1.155,   3.546e-5
1.156,   3.533e-5
1.157,   3.532e-5
1.158,   3.523e-5
1.159,   3.517e-5
1.160,   3.516e-5
1.161,   3.507e-5
1.162,   3.503e-5
1.163,   3.497e-5
1.164,   3.488e-5
1.165,   3.496e-5
1.166,   3.486e-5
1.167,   3.478e-5
1.168,   3.478e-5
1.169,   3.470e-5
1.170,   3.470e-5
1.171,   3.472e-5
1.172,   3.464e-5
1.173,   3.460e-5
1.174,   3.456e-5
1.175,   3.455e-5
1.176,   3.455e-5
1.177,   3.446e-5
1.178,   3.452e-5
1.179,   3.448e-5
1.180,   3.441e-5
1.181,   3.445e-5
1.182,   3.443e-5
1.183,   3.442e-5
1.184,   3.445e-5
1.185,   3.440e-5
1.186,   3.440e-5
1.187,   3.439e-5
1.188,   3.435e-5
1.189,   3.438e-5
1.190,   3.440e-5
1.191,   3.440e-5
1.192,   3.443e-5
1.193,   3.436e-5
1.194,   3.441e-5
1.195,   3.443e-5
1.196,   3.434e-5
1.197,   3.437e-5
1.198,   3.441e-5
1.199,   3.438e-5
1.200,   3.446e-5
1.201,   3.446e-5
1.202,   3.445e-5
1.203,   3.450e-5
1.204,   3.449e-5
1.205,   3.455e-5
1.206,   3.454e-5
1.207,   3.457e-5
1.208,   3.462e-5
1.209,   3.458e-5
1.210,   3.464e-5
1.211,   3.470e-5
1.212,   3.466e-5
1.213,   3.471e-5
1.214,   3.478e-5
1.215,   3.479e-5
1.216,   3.487e-5
1.217,   3.488e-5
1.218,   3.490e-5
1.219,   3.493e-5
1.220,   3.494e-5
1.221,   3.505e-5
1.222,   3.503e-5
1.223,   3.509e-5
1.224,   3.513e-5
1.225,   3.513e-5
1.226,   3.517e-5
1.227,   3.524e-5
1.228,   3.523e-5
1.229,   3.534e-5
1.230,   3.534e-5
1.231,   3.538e-5
1.232,   3.547e-5
1.233,   3.545e-5
1.234,   3.553e-5
1.235,   3.558e-5
1.236,   3.563e-5
1.237,   3.571e-5
1.238,   3.571e-5
1.239,   3.577e-5
1.240,   3.589e-5
1.241,   3.586e-5
1.242,   3.597e-5
1.243,   3.606e-5
1.244,   3.605e-5
1.245,   3.614e-5
1.246,   3.620e-5
1.247,   3.622e-5
1.248,   3.635e-5
1.249,   3.636e-5
1.250,   3.644e-5
1.251,   3.654e-5
1.252,   3.655e-5
1.253,   3.670e-5
1.254,   3.671e-5
1.255,   3.682e-5
1.256,   3.694e-5
1.257,   3.691e-5
1.258,   3.704e-5
1.259,   3.713e-5
1.260,   3.712e-5
1.261,   3.724e-5
1.262,   3.729e-5
1.263,   3.737e-5
1.264,   3.745e-5
1.265,   3.750e-5
1.266,   3.759e-5
1.267,   3.769e-5
1.268,   3.776e-5
1.269,   3.783e-5
1.270,   3.791e-5
1.271,   3.798e-5
1.272,   3.810e-5
1.273,   3.814e-5
1.274,   3.831e-5
1.275,   3.841e-5
1.276,   3.841e-5
1.277,   3.859e-5
1.278,   3.863e-5
1.279,   3.875e-5
1.280,   3.895e-5
1.281,   3.902e-5
1.282,   3.915e-5
1.283,   3.929e-5
1.284,   3.930e-5
1.285,   3.947e-5
1.286,   3.955e-5
1.287,   3.970e-5
1.288,   3.990e-5
1.289,   3.993e-5
1.290,   4.013e-5
1.291,   4.033e-5
1.292,   4.036e-5
1.293,   4.061e-5
1.294,   4.075e-5
1.295,   4.085e-5
1.296,   4.100e-5
1.297,   4.115e-5
1.298,   4.129e-5
1.299,   4.147e-5
1.300,   4.166e-5
1.301,   4.182e-5
1.302,   4.197e-5
1.303,   4.214e-5
1.304,   4.240e-5
1.305,   4.249e-5
1.306,   4.281e-5
1.307,   4.303e-5
1.308,   4.309e-5
1.309,   4.335e-5
1.310,   4.355e-5
1.311,   4.372e-5
1.312,   4.399e-5
1.313,   4.417e-5
1.314,   4.440e-5
1.315,   4.471e-5
1.316,   4.486e-5
1.317,   4.516e-5
1.318,   4.534e-5
1.319,   4.565e-5
1.320,   4.593e-5
1.321,   4.612e-5
1.322,   4.645e-5
1.323,   4.681e-5
1.324,   4.700e-5
1.325,   4.737e-5
1.326,   4.767e-5
1.327,   4.797e-5
1.328,   4.833e-5
1.329,   4.866e-5
1.330,   4.898e-5
1.331,   4.942e-5
1.332,   4.978e-5
1.333,   5.019e-5
1.334,   5.054e-5
1.335,   5.090e-5
1.336,   5.141e-5
1.337,   5.177e-5
1.338,   5.225e-5
1.339,   5.280e-5
1.340,   5.320e-5
1.341,   5.379e-5
1.342,   5.429e-5
1.343,   5.482e-5
1.344,   5.546e-5
1.345,   5.601e-5
1.346,   5.660e-5
1.347,   5.720e-5
1.348,   5.787e-5
1.349,   5.868e-5
1.350,   5.944e-5
1.351,   6.022e-5
1.352,   6.107e-5
1.353,   6.179e-5
1.354,   6.277e-5
1.355,   6.382e-5
1.356,   6.472e-5
1.357,   6.588e-5
1.358,   6.713e-5
1.359,   6.823e-5
1.360,   6.954e-5
1.361,   7.079e-5
1.362,   7.233e-5
1.363,   7.392e-5
1.364,   7.553e-5
1.365,   7.738e-5
1.366,   7.916e-5
1.367,   8.107e-5
1.368,   8.317e-5
1.369,   8.530e-5
1.370,   8.769e-5
1.371,   9.020e-5
1.372,   9.276e-5
1.373,   9.568e-5
1.374,   9.870e-5
1.375,   1.019e-4
1.376,   1.054e-4
1.377,   1.091e-4
1.378,   1.130e-4
1.379,   1.173e-4
1.380,   1.216e-4
1.381,   1.264e-4
1.382,   1.314e-4
1.383,   1.368e-4
1.384,   1.426e-4
1.385,   1.485e-4
1.386,   1.550e-4
1.387,   1.619e-4
1.388,   1.691e-4
1.389,   1.768e-4
1.390,   1.850e-4
1.391,   1.937e-4
1.392,   2.028e-4
1.393,   2.124e-4
1.394,   2.227e-4
1.395,   2.336e-4
1.396,   2.451e-4
1.397,   2.573e-4
1.398,   2.700e-4
1.399,   2.836e-4
1.400,   2.979e-4
1.401,   3.128e-4
1.402,   3.287e-4
1.403,   3.454e-4
1.404,   3.627e-4
1.405,   3.811e-4
1.406,   4.004e-4
1.407,   4.207e-4
1.408,   4.420e-4
1.409,   4.643e-4
1.410,   4.879e-4
1.411,   5.123e-4
1.412,   5.379e-4
1.413,   5.648e-4
1.414,   5.929e-4
1.415,   6.225e-4
1.416,   6.534e-4
1.417,   6.853e-4
1.418,   7.190e-4
1.419,   7.540e-4
1.420,   7.905e-4
1.421,   8.284e-4
1.422,   8.682e-4
1.423,   9.095e-4
1.424,   9.526e-4
1.425,   9.970e-4
1.426,   1.044e-3
1.427,   1.092e-3
1.428,   1.142e-3
1.429,   1.194e-3
1.430,   1.249e-3
1.431,   1.304e-3
1.432,   1.362e-3
1.433,   1.422e-3
1.434,   1.484e-3
1.435,   1.548e-3
1.436,   1.614e-3
1.437,   1.682e-3
1.438,   1.753e-3
1.439,   1.828e-3
1.440,   1.903e-3
1.441,   1.980e-3
1.442,   2.059e-3
1.443,   2.141e-3
1.444,   2.225e-3
1.445,   2.311e-3
1.446,   2.397e-3
1.447,   2.487e-3
1.448,   2.580e-3
1.449,   2.673e-3
1.450,   2.769e-3
1.451,   2.870e-3
1.452,   2.972e-3
1.453,   3.076e-3
1.454,   3.183e-3
1.455,   3.290e-3
1.456,   3.401e-3
1.457,   3.512e-3
1.458,   3.625e-3
1.459,   3.740e-3
1.460,   3.857e-3
1.461,   3.976e-3
1.462,   4.099e-3
1.463,   4.230e-3
1.464,   4.354e-3
1.465,   4.476e-3
1.466,   4.595e-3
1.467,   4.724e-3
1.468,   4.857e-3
1.469,   4.983e-3
1.470,   5.110e-3
1.471,   5.241e-3
1.472,   5.372e-3
1.473,   5.503e-3
1.474,   5.630e-3
1.475,   5.770e-3
1.476,   5.904e-3
1.477,   6.030e-3
1.478,   6.159e-3
1.479,   6.294e-3
1.480,   6.430e-3
1.481,   6.576e-3
1.482,   6.723e-3
1.483,   6.841e-3
1.484,   6.991e-3
1.485,   7.144e-3
1.486,   7.312e-3
1.487,   7.482e-3
1.488,   7.616e-3
1.489,   7.722e-3
1.490,   7.842e-3
1.491,   7.955e-3
1.492,   8.112e-3
1.493,   8.237e-3
1.494,   8.330e-3
1.495,   8.429e-3
1.496,   8.566e-3
1.497,   8.695e-3
1.498,   8.817e-3
1.499,   8.939e-3
1.500,   9.044e-3
1.501,   9.128e-3
1.502,   9.220e-3
1.503,   9.350e-3
1.504,   9.449e-3
1.505,   9.547e-3
1.506,   9.648e-3
1.507,   9.771e-3
1.508,   9.870e-3