File: Experimental Records and Raw Data/batch4/final400/B4_BEST_400_#7_High_Quality(#23)-214mV.txt
Mar. 26, 2023   18:10:57
Linear Sweep Voltammetry
File: d:\current work\al_oer\electrochemical test data\batch 4\400\B4_BEST_400_#7_High_Quality(#23)-214mV.txt
Data Source:  Experiment
Instrument Model:  CHI660E
Header:
Note:

Init E (V) = 1.056

Final E (V) = 1.555

Scan Rate (V/s) = 0.010
Sample Interval (V) = 0.001
Quiet Time (sec) = 2
Sensitivity (A/V) = 0.001
Comp R (ohm) = 5.0

Results:

Channel 1:
Ep = 1.342V
ip = 1.003e-2A
Ah = 6.612e-2C

Potential/V, Current/A
1.056,   3.206e-5
1.057,   3.479e-5
1.058,   3.334e-5
1.059,   3.188e-5
1.060,   3.068e-5
1.061,   2.956e-5
1.062,   2.855e-5
1.063,   2.776e-5
1.064,   2.697e-5
1.065,   2.623e-5
1.066,   2.561e-5
1.067,   2.498e-5
1.068,   2.450e-5
1.069,   2.401e-5
1.070,   2.354e-5
1.071,   2.321e-5
1.072,   2.277e-5
1.073,   2.244e-5
1.074,   2.219e-5
1.075,   2.182e-5
1.076,   2.167e-5
1.077,   2.144e-5
1.078,   2.112e-5
1.079,   2.094e-5
1.080,   2.072e-5
1.081,   2.058e-5
1.082,   2.044e-5
1.083,   2.027e-5
1.084,   2.014e-5
1.085,   1.999e-5
1.086,   1.984e-5
1.087,   1.979e-5
1.088,   1.961e-5
1.089,   1.957e-5
1.090,   1.954e-5
1.091,   1.936e-5
1.092,   1.931e-5
1.093,   1.929e-5
1.094,   1.919e-5
1.095,   1.919e-5
1.096,   1.913e-5
1.097,   1.907e-5
1.098,   1.909e-5
1.099,   1.901e-5
1.100,   1.905e-5
1.101,   1.898e-5
1.102,   1.902e-5
1.103,   1.902e-5
1.104,   1.897e-5
1.105,   1.899e-5
1.106,   1.903e-5
1.107,   1.898e-5
1.108,   1.905e-5
1.109,   1.905e-5
1.110,   1.902e-5
1.111,   1.911e-5
1.112,   1.913e-5
1.113,   1.914e-5
1.114,   1.929e-5
1.115,   1.930e-5
1.116,   1.929e-5
1.117,   1.936e-5
1.118,   1.937e-5
1.119,   1.950e-5
1.120,   1.948e-5
1.121,   1.953e-5
1.122,   1.967e-5
1.123,   1.961e-5
1.124,   1.972e-5
1.125,   1.981e-5
1.126,   1.983e-5
1.127,   1.998e-5
1.128,   2.007e-5
1.129,   2.008e-5
1.130,   2.018e-5
1.131,   2.016e-5
1.132,   2.028e-5
1.133,   2.036e-5
1.134,   2.039e-5
1.135,   2.055e-5
1.136,   2.052e-5
1.137,   2.062e-5
1.138,   2.076e-5
1.139,   2.073e-5
1.140,   2.089e-5
1.141,   2.099e-5
1.142,   2.100e-5
1.143,   2.115e-5
1.144,   2.110e-5
1.145,   2.122e-5
1.146,   2.136e-5
1.147,   2.133e-5
1.148,   2.141e-5
1.149,   2.154e-5
1.150,   2.154e-5
1.151,   2.173e-5
1.152,   2.162e-5
1.153,   2.176e-5
1.154,   2.189e-5
1.155,   2.183e-5
1.156,   2.200e-5
1.157,   2.200e-5
1.158,   2.201e-5
1.159,   2.222e-5
1.160,   2.217e-5
1.161,   2.223e-5
1.162,   2.237e-5
1.163,   2.227e-5
1.164,   2.238e-5
1.165,   2.244e-5
1.166,   2.252e-5
1.167,   2.262e-5
1.168,   2.252e-5
1.169,   2.258e-5
1.170,   2.270e-5
1.171,   2.261e-5
1.172,   2.274e-5
1.173,   2.280e-5
1.174,   2.270e-5
1.175,   2.284e-5
1.176,   2.277e-5
1.177,   2.280e-5
1.178,   2.292e-5
1.179,   2.285e-5
1.180,   2.291e-5
1.181,   2.292e-5
1.182,   2.288e-5
1.183,   2.298e-5
1.184,   2.289e-5
1.185,   2.299e-5
1.186,   2.307e-5
1.187,   2.290e-5
1.188,   2.303e-5
1.189,   2.299e-5
1.190,   2.293e-5
1.191,   2.302e-5
1.192,   2.298e-5
1.193,   2.295e-5
1.194,   2.304e-5
1.195,   2.291e-5
1.196,   2.296e-5
1.197,   2.295e-5
1.198,   2.292e-5
1.199,   2.299e-5
1.200,   2.282e-5
1.201,   2.289e-5
1.202,   2.295e-5
1.203,   2.275e-5
1.204,   2.288e-5
1.205,   2.292e-5
1.206,   2.277e-5
1.207,   2.288e-5
1.208,   2.273e-5
1.209,   2.269e-5
1.210,   2.281e-5
1.211,   2.272e-5
1.212,   2.273e-5
1.213,   2.268e-5
1.214,   2.260e-5
1.215,   2.270e-5
1.216,   2.252e-5
1.217,   2.258e-5
1.218,   2.268e-5
1.219,   2.247e-5
1.220,   2.255e-5
1.221,   2.252e-5
1.222,   2.240e-5
1.223,   2.247e-5
1.224,   2.242e-5
1.225,   2.235e-5
1.226,   2.241e-5
1.227,   2.230e-5
1.228,   2.236e-5
1.229,   2.231e-5
1.230,   2.230e-5
1.231,   2.233e-5
1.232,   2.218e-5
1.233,   2.217e-5
1.234,   2.224e-5
1.235,   2.210e-5
1.236,   2.216e-5
1.237,   2.218e-5
1.238,   2.203e-5
1.239,   2.214e-5
1.240,   2.204e-5
1.241,   2.203e-5
1.242,   2.207e-5
1.243,   2.202e-5
1.244,   2.201e-5
1.245,   2.196e-5
1.246,   2.192e-5
1.247,   2.203e-5
1.248,   2.188e-5
1.249,   2.193e-5
1.250,   2.200e-5
1.251,   2.179e-5
1.252,   2.194e-5
1.253,   2.191e-5
1.254,   2.182e-5
1.255,   2.197e-5
1.256,   2.193e-5
1.257,   2.183e-5
1.258,   2.199e-5
1.259,   2.185e-5
1.260,   2.191e-5
1.261,   2.195e-5
1.262,   2.190e-5
1.263,   2.202e-5
1.264,   2.191e-5
1.265,   2.193e-5
1.266,   2.200e-5
1.267,   2.192e-5
1.268,   2.209e-5
1.269,   2.211e-5
1.270,   2.199e-5
1.271,   2.208e-5
1.272,   2.209e-5
1.273,   2.210e-5
1.274,   2.221e-5
1.275,   2.210e-5
1.276,   2.224e-5
1.277,   2.225e-5
1.278,   2.227e-5
1.279,   2.239e-5
1.280,   2.233e-5
1.281,   2.257e-5
1.282,   2.262e-5
1.283,   2.246e-5
1.284,   2.260e-5
1.285,   2.259e-5
1.286,   2.264e-5
1.287,   2.278e-5
1.288,   2.279e-5
1.289,   2.283e-5
1.290,   2.296e-5
1.291,   2.294e-5
1.292,   2.305e-5
1.293,   2.314e-5
1.294,   2.324e-5
1.295,   2.333e-5
1.296,   2.331e-5
1.297,   2.341e-5
1.298,   2.360e-5
1.299,   2.359e-5
1.300,   2.374e-5
1.301,   2.387e-5
1.302,   2.390e-5
1.303,   2.408e-5
1.304,   2.409e-5
1.305,   2.424e-5
1.306,   2.446e-5
1.307,   2.450e-5
1.308,   2.463e-5
1.309,   2.478e-5
1.310,   2.485e-5
1.311,   2.514e-5
1.312,   2.511e-5
1.313,   2.535e-5
1.314,   2.560e-5
1.315,   2.557e-5
1.316,   2.590e-5
1.317,   2.606e-5
1.318,   2.618e-5
1.319,   2.650e-5
1.320,   2.674e-5
1.321,   2.687e-5
1.322,   2.713e-5
1.323,   2.730e-5
1.324,   2.760e-5
1.325,   2.779e-5
1.326,   2.813e-5
1.327,   2.847e-5
1.328,   2.868e-5
1.329,   2.894e-5
1.330,   2.942e-5
1.331,   2.966e-5
1.332,   3.008e-5
1.333,   3.052e-5
1.334,   3.078e-5
1.335,   3.137e-5
1.336,   3.167e-5
1.337,   3.212e-5
1.338,   3.271e-5
1.339,   3.317e-5
1.340,   3.369e-5
1.341,   3.439e-5
1.342,   3.485e-5
1.343,   3.562e-5
1.344,   3.620e-5
1.345,   3.706e-5
1.346,   3.774e-5
1.347,   3.825e-5
1.348,   3.918e-5
1.349,   4.007e-5
1.350,   4.081e-5
1.351,   4.199e-5
1.352,   4.289e-5
1.353,   4.391e-5
1.354,   4.519e-5
1.355,   4.617e-5
1.356,   4.767e-5
1.357,   4.886e-5
1.358,   5.033e-5
1.359,   5.184e-5
1.360,   5.323e-5
1.361,   5.493e-5
1.362,   5.677e-5
1.363,   5.833e-5
1.364,   6.040e-5
1.365,   6.240e-5
1.366,   6.440e-5
1.367,   6.689e-5
1.368,   6.894e-5
1.369,   7.155e-5
1.370,   7.423e-5
1.371,   7.700e-5
1.372,   7.992e-5
1.373,   8.291e-5
1.374,   8.603e-5
1.375,   8.951e-5
1.376,   9.280e-5
1.377,   9.670e-5
1.378,   1.006e-4
1.379,   1.044e-4
1.380,   1.089e-4
1.381,   1.134e-4
1.382,   1.180e-4
1.383,   1.231e-4
1.384,   1.282e-4
1.385,   1.337e-4
1.386,   1.396e-4
1.387,   1.453e-4
1.388,   1.517e-4
1.389,   1.586e-4
1.390,   1.654e-4
1.391,   1.727e-4
1.392,   1.801e-4
1.393,   1.882e-4
1.394,   1.967e-4
1.395,   2.051e-4
1.396,   2.147e-4
1.397,   2.243e-4
1.398,   2.342e-4
1.399,   2.451e-4
1.400,   2.559e-4
1.401,   2.676e-4
1.402,   2.800e-4
1.403,   2.925e-4
1.404,   3.063e-4
1.405,   3.203e-4
1.406,   3.347e-4
1.407,   3.506e-4
1.408,   3.662e-4
1.409,   3.833e-4
1.410,   4.015e-4
1.411,   4.194e-4
1.412,   4.393e-4
1.413,   4.596e-4
1.414,   4.810e-4
1.415,   5.039e-4
1.416,   5.266e-4
1.417,   5.513e-4
1.418,   5.772e-4
1.419,   6.042e-4
1.420,   6.322e-4
1.421,   6.619e-4
1.422,   6.927e-4
1.423,   7.251e-4
1.424,   7.588e-4
1.425,   7.946e-4
1.426,   8.316e-4
1.427,   8.701e-4
1.428,   9.117e-4
1.429,   9.536e-4
1.430,   9.976e-4
1.431,   1.046e-3
1.432,   1.093e-3
1.433,   1.145e-3
1.434,   1.198e-3
1.435,   1.254e-3
1.436,   1.312e-3
1.437,   1.373e-3
1.438,   1.435e-3
1.439,   1.500e-3
1.440,   1.568e-3
1.441,   1.640e-3
1.442,   1.714e-3
1.443,   1.789e-3
1.444,   1.875e-3
1.445,   1.964e-3
1.446,   2.048e-3
1.447,   2.138e-3
1.448,   2.238e-3
1.449,   2.337e-3
1.450,   2.436e-3
1.451,   2.538e-3
1.452,   2.641e-3
1.453,   2.750e-3
1.454,   2.865e-3
1.455,   2.978e-3
1.456,   3.102e-3
1.457,   3.237e-3
1.458,   3.360e-3
1.459,   3.478e-3
1.460,   3.610e-3
1.461,   3.743e-3
1.462,   3.878e-3
1.463,   4.029e-3
1.464,   4.168e-3
1.465,   4.302e-3
1.466,   4.447e-3
1.467,   4.589e-3
1.468,   4.741e-3
1.469,   4.876e-3
1.470,   5.069e-3
1.471,   5.210e-3
1.472,   5.347e-3
1.473,   5.494e-3
1.474,   5.654e-3
1.475,   5.798e-3
1.476,   6.043e-3
1.477,   6.216e-3
1.478,   6.399e-3
1.479,   6.563e-3
1.480,   6.736e-3
1.481,   6.884e-3
1.482,   7.069e-3
1.483,   7.267e-3
1.484,   7.508e-3
1.485,   7.686e-3
1.486,   7.901e-3
1.487,   8.107e-3
1.488,   8.312e-3
1.489,   8.515e-3
1.490,   8.707e-3
1.491,   8.917e-3
1.492,   9.087e-3
1.493,   9.285e-3
1.494,   9.537e-3
1.495,   9.863e-3
1.496,   9.998e-3
1.497,   1.006e-2
1.498,   1.006e-2
1.499,   1.006e-2
1.500,   1.006e-2
1.501,   1.006e-2
1.502,   1.006e-2
1.503,   1.006e-2
1.504,   1.006e-2
1.505,   1.006e-2
1.506,   1.006e-2
1.507,   1.006e-2
1.508,   1.006e-2
1.509,   1.006e-2
1.510,   1.006e-2
1.511,   1.006e-2
1.512,   1.006e-2
1.513,   1.006e-2
1.514,   1.006e-2
1.515,   1.006e-2
1.516,   1.006e-2
1.517,   1.006e-2
1.518,   1.006e-2
1.519,   1.006e-2
1.520,   1.006e-2
1.521,   1.006e-2
1.522,   1.006e-2
1.523,   1.006e-2
1.524,   1.006e-2
1.525,   1.006e-2
1.526,   1.006e-2
1.527,   1.006e-2
1.528,   1.006e-2
1.529,   1.006e-2
1.530,   1.006e-2
1.531,   1.006e-2
1.532,   1.006e-2
1.533,   1.006e-2
1.534,   1.006e-2
1.535,   1.006e-2
1.536,   1.006e-2
1.537,   1.006e-2
1.538,   1.006e-2
1.539,   1.006e-2
1.540,   1.006e-2
1.541,   1.006e-2
1.542,   1.006e-2
1.543,   1.006e-2
1.544,   1.006e-2
1.545,   1.006e-2
1.546,   1.006e-2
1.547,   1.006e-2
1.548,   1.006e-2
1.549,   1.006e-2
1.550,   1.006e-2
1.551,   1.006e-2
1.552,   1.006e-2
1.553,   1.006e-2
1.554,   1.006e-2
1.555,   1.006e-2