File: Experimental Records and Raw Data/batch4/final400/B4_BEST_400_#3_Full-195mV.txt
Mar. 27, 2023   16:13:50
Linear Sweep Voltammetry
File: d:\current work\al_oer\electrochemical test data\batch 4\400\B4_BEST_400_#3_Full-195mV.txt
Data Source:  Experiment
Instrument Model:  CHI660E
Header:
Note:

Init E (V) = 1.072

Final E (V) = 1.471

Scan Rate (V/s) = 0.010
Sample Interval (V) = 0.001
Quiet Time (sec) = 2
Sensitivity (A/V) = 0.001
Comp R (ohm) = 4.8

Results:

Channel 1:

Potential/V, Current/A
1.072,   8.581e-5
1.073,   9.176e-5
1.074,   8.803e-5
1.075,   8.447e-5
1.076,   8.162e-5
1.077,   7.950e-5
1.078,   7.832e-5
1.079,   7.598e-5
1.080,   7.359e-5
1.081,   7.147e-5
1.082,   6.983e-5
1.083,   6.793e-5
1.084,   6.655e-5
1.085,   6.515e-5
1.086,   6.406e-5
1.087,   6.288e-5
1.088,   6.146e-5
1.089,   6.058e-5
1.090,   5.964e-5
1.091,   5.856e-5
1.092,   5.799e-5
1.093,   5.731e-5
1.094,   5.624e-5
1.095,   5.571e-5
1.096,   5.509e-5
1.097,   5.449e-5
1.098,   5.422e-5
1.099,   5.416e-5
1.100,   5.360e-5
1.101,   5.245e-5
1.102,   5.190e-5
1.103,   5.164e-5
1.104,   5.102e-5
1.105,   5.079e-5
1.106,   5.047e-5
1.107,   4.993e-5
1.108,   4.983e-5
1.109,   4.954e-5
1.110,   4.917e-5
1.111,   4.947e-5
1.112,   4.939e-5
1.113,   4.903e-5
1.114,   4.874e-5
1.115,   4.840e-5
1.116,   4.822e-5
1.117,   4.792e-5
1.118,   4.760e-5
1.119,   4.764e-5
1.120,   4.730e-5
1.121,   4.707e-5
1.122,   4.696e-5
1.123,   4.655e-5
1.124,   4.650e-5
1.125,   4.647e-5
1.126,   4.618e-5
1.127,   4.605e-5
1.128,   4.590e-5
1.129,   4.571e-5
1.130,   4.585e-5
1.131,   4.564e-5
1.132,   4.554e-5
1.133,   4.543e-5
1.134,   4.529e-5
1.135,   4.536e-5
1.136,   4.510e-5
1.137,   4.508e-5
1.138,   4.506e-5
1.139,   4.483e-5
1.140,   4.493e-5
1.141,   4.484e-5
1.142,   4.460e-5
1.143,   4.475e-5
1.144,   4.470e-5
1.145,   4.447e-5
1.146,   4.459e-5
1.147,   4.437e-5
1.148,   4.434e-5
1.149,   4.434e-5
1.150,   4.420e-5
1.151,   4.442e-5
1.152,   4.410e-5
1.153,   4.420e-5
1.154,   4.420e-5
1.155,   4.396e-5
1.156,   4.420e-5
1.157,   4.413e-5
1.158,   4.394e-5
1.159,   4.409e-5
1.160,   4.388e-5
1.161,   4.384e-5
1.162,   4.399e-5
1.163,   4.382e-5
1.164,   4.392e-5
1.165,   4.386e-5
1.166,   4.376e-5
1.167,   4.385e-5
1.168,   4.360e-5
1.169,   4.363e-5
1.170,   4.357e-5
1.171,   4.339e-5
1.172,   4.347e-5
1.173,   4.351e-5
1.174,   4.360e-5
1.175,   4.362e-5
1.176,   4.342e-5
1.177,   4.337e-5
1.178,   4.352e-5
1.179,   4.336e-5
1.180,   4.346e-5
1.181,   4.341e-5
1.182,   4.345e-5
1.183,   4.353e-5
1.184,   4.329e-5
1.185,   4.336e-5
1.186,   4.344e-5
1.187,   4.313e-5
1.188,   4.329e-5
1.189,   4.327e-5
1.190,   4.308e-5
1.191,   4.323e-5
1.192,   4.304e-5
1.193,   4.307e-5
1.194,   4.315e-5
1.195,   4.291e-5
1.196,   4.298e-5
1.197,   4.299e-5
1.198,   4.288e-5
1.199,   4.300e-5
1.200,   4.281e-5
1.201,   4.279e-5
1.202,   4.286e-5
1.203,   4.261e-5
1.204,   4.272e-5
1.205,   4.268e-5
1.206,   4.252e-5
1.207,   4.269e-5
1.208,   4.259e-5
1.209,   4.249e-5
1.210,   4.253e-5
1.211,   4.235e-5
1.212,   4.244e-5
1.213,   4.223e-5
1.214,   4.222e-5
1.215,   4.228e-5
1.216,   4.214e-5
1.217,   4.212e-5
1.218,   4.212e-5
1.219,   4.183e-5
1.220,   4.202e-5
1.221,   4.195e-5
1.222,   4.181e-5
1.223,   4.187e-5
1.224,   4.171e-5
1.225,   4.162e-5
1.226,   4.175e-5
1.227,   4.159e-5
1.228,   4.154e-5
1.229,   4.161e-5
1.230,   4.151e-5
1.231,   4.156e-5
1.232,   4.134e-5
1.233,   4.144e-5
1.234,   4.150e-5
1.235,   4.121e-5
1.236,   4.124e-5
1.237,   4.115e-5
1.238,   4.098e-5
1.239,   4.113e-5
1.240,   4.103e-5
1.241,   4.096e-5
1.242,   4.107e-5
1.243,   4.083e-5
1.244,   4.095e-5
1.245,   4.087e-5
1.246,   4.092e-5
1.247,   4.095e-5
1.248,   4.069e-5
1.249,   4.059e-5
1.250,   4.085e-5
1.251,   4.055e-5
1.252,   4.075e-5
1.253,   4.067e-5
1.254,   4.053e-5
1.255,   4.063e-5
1.256,   4.053e-5
1.257,   4.047e-5
1.258,   4.061e-5
1.259,   4.053e-5
1.260,   4.056e-5
1.261,   4.044e-5
1.262,   4.042e-5
1.263,   4.059e-5
1.264,   4.032e-5
1.265,   4.049e-5
1.266,   4.058e-5
1.267,   4.032e-5
1.268,   4.043e-5
1.269,   4.050e-5
1.270,   4.056e-5
1.271,   4.077e-5
1.272,   4.067e-5
1.273,   4.066e-5
1.274,   4.075e-5
1.275,   4.062e-5
1.276,   4.080e-5
1.277,   4.078e-5
1.278,   4.078e-5
1.279,   4.087e-5
1.280,   4.064e-5
1.281,   4.071e-5
1.282,   4.086e-5
1.283,   4.071e-5
1.284,   4.098e-5
1.285,   4.113e-5
1.286,   4.101e-5
1.287,   4.118e-5
1.288,   4.109e-5
1.289,   4.113e-5
1.290,   4.143e-5
1.291,   4.129e-5
1.292,   4.152e-5
1.293,   4.153e-5
1.294,   4.162e-5
1.295,   4.184e-5
1.296,   4.172e-5
1.297,   4.224e-5
1.298,   4.230e-5
1.299,   4.207e-5
1.300,   4.233e-5
1.301,   4.247e-5
1.302,   4.245e-5
1.303,   4.287e-5
1.304,   4.291e-5
1.305,   4.305e-5
1.306,   4.334e-5
1.307,   4.330e-5
1.308,   4.362e-5
1.309,   4.368e-5
1.310,   4.402e-5
1.311,   4.432e-5
1.312,   4.430e-5
1.313,   4.462e-5
1.314,   4.497e-5
1.315,   4.494e-5
1.316,   4.547e-5
1.317,   4.575e-5
1.318,   4.593e-5
1.319,   4.640e-5
1.320,   4.667e-5
1.321,   4.687e-5
1.322,   4.747e-5
1.323,   4.769e-5
1.324,   4.818e-5
1.325,   4.857e-5
1.326,   4.891e-5
1.327,   4.963e-5
1.328,   4.993e-5
1.329,   5.055e-5
1.330,   5.115e-5
1.331,   5.150e-5
1.332,   5.227e-5
1.333,   5.299e-5
1.334,   5.334e-5
1.335,   5.447e-5
1.336,   5.516e-5
1.337,   5.584e-5
1.338,   5.676e-5
1.339,   5.749e-5
1.340,   5.854e-5
1.341,   5.956e-5
1.342,   6.059e-5
1.343,   6.191e-5
1.344,   6.283e-5
1.345,   6.417e-5
1.346,   6.581e-5
1.347,   6.696e-5
1.348,   6.870e-5
1.349,   7.036e-5
1.350,   7.177e-5
1.351,   7.406e-5
1.352,   7.571e-5
1.353,   7.762e-5
1.354,   8.010e-5
1.355,   8.217e-5
1.356,   8.471e-5
1.357,   8.716e-5
1.358,   8.982e-5
1.359,   9.292e-5
1.360,   9.563e-5
1.361,   9.921e-5
1.362,   1.027e-4
1.363,   1.059e-4
1.364,   1.098e-4
1.365,   1.140e-4
1.366,   1.180e-4
1.367,   1.229e-4
1.368,   1.277e-4
1.369,   1.327e-4
1.370,   1.384e-4
1.371,   1.449e-4
1.372,   1.523e-4
1.373,   1.577e-4
1.374,   1.645e-4
1.375,   1.720e-4
1.376,   1.793e-4
1.377,   1.876e-4
1.378,   1.963e-4
1.379,   2.049e-4
1.380,   2.149e-4
1.381,   2.250e-4
1.382,   2.357e-4
1.383,   2.473e-4
1.384,   2.589e-4
1.385,   2.717e-4
1.386,   2.851e-4
1.387,   2.991e-4
1.388,   3.139e-4
1.389,   3.295e-4
1.390,   3.411e-4
1.391,   3.624e-4
1.392,   3.828e-4
1.393,   4.007e-4
1.394,   4.207e-4
1.395,   4.414e-4
1.396,   4.637e-4
1.397,   4.872e-4
1.398,   5.115e-4
1.399,   5.380e-4
1.400,   5.576e-4
1.401,   5.934e-4
1.402,   6.236e-4
1.403,   6.538e-4
1.404,   6.867e-4
1.405,   7.205e-4
1.406,   7.566e-4
1.407,   7.844e-4
1.408,   8.286e-4
1.409,   8.715e-4
1.410,   9.137e-4
1.411,   9.593e-4
1.412,   1.005e-3
1.413,   1.054e-3
1.414,   1.093e-3
1.415,   1.159e-3
1.416,   1.213e-3
1.417,   1.270e-3
1.418,   1.331e-3
1.419,   1.388e-3
1.420,   1.470e-3
1.421,   1.538e-3
1.422,   1.610e-3
1.423,   1.670e-3
1.424,   1.756e-3
1.425,   1.839e-3
1.426,   1.923e-3
1.427,   2.011e-3
1.428,   2.086e-3
1.429,   2.194e-3
1.430,   2.287e-3
1.431,   2.385e-3
1.432,   2.466e-3
1.433,   2.590e-3
1.434,   2.696e-3
1.435,   2.825e-3
1.436,   2.942e-3
1.437,   3.037e-3
1.438,   3.174e-3
1.439,   3.301e-3
1.440,   3.401e-3
1.441,   3.566e-3
1.442,   3.722e-3
1.443,   3.872e-3
1.444,   3.991e-3
1.445,   4.165e-3
1.446,   4.312e-3
1.447,   4.456e-3
1.448,   4.598e-3
1.449,   4.717e-3
1.450,   4.947e-3
1.451,   5.119e-3
1.452,   5.272e-3
1.453,   5.428e-3
1.454,   5.723e-3
1.455,   6.000e-3
1.456,   6.150e-3
1.457,   6.345e-3
1.458,   6.542e-3
1.459,   6.757e-3
1.460,   6.936e-3
1.461,   7.117e-3
1.462,   7.317e-3
1.463,   7.552e-3
1.464,   7.730e-3
1.465,   7.975e-3
1.466,   8.290e-3
1.467,   8.519e-3
1.468,   8.588e-3
1.469,   8.850e-3
1.470,   9.277e-3
1.471,   9.399e-3