File: Experimental Records and Raw Data/batch4/final400/B4_BEST_400_#5_High_Quality(#21)-204mV.txt
Mar. 26, 2023   15:07:38
Linear Sweep Voltammetry
File: d:\current work\al_oer\electrochemical test data\batch 4\400\B4_BEST_400_#5_High_Quality(#21)-204mV.txt
Data Source:  Experiment
Instrument Model:  CHI660E
Header:
Note:

Init E (V) = 1.051

Final E (V) = 1.550

Scan Rate (V/s) = 0.010
Sample Interval (V) = 0.001
Quiet Time (sec) = 2
Sensitivity (A/V) = 0.001
Comp R (ohm) = 5.5

Results:

Channel 1:
Ep = 1.341V
ip = 1.004e-2A
Ah = 7.077e-2C

Potential/V, Current/A
1.051,   2.851e-5
1.052,   3.040e-5
1.053,   2.916e-5
1.054,   2.786e-5
1.055,   2.684e-5
1.056,   2.588e-5
1.057,   2.501e-5
1.058,   2.430e-5
1.059,   2.356e-5
1.060,   2.292e-5
1.061,   2.239e-5
1.062,   2.180e-5
1.063,   2.136e-5
1.064,   2.094e-5
1.065,   2.052e-5
1.066,   2.022e-5
1.067,   2.130e-5
1.068,   2.193e-5
1.069,   2.165e-5
1.070,   2.075e-5
1.071,   2.047e-5
1.072,   2.051e-5
1.073,   2.017e-5
1.074,   1.966e-5
1.075,   1.910e-5
1.076,   1.861e-5
1.077,   1.838e-5
1.078,   1.821e-5
1.079,   1.782e-5
1.080,   1.758e-5
1.081,   1.754e-5
1.082,   1.749e-5
1.083,   1.725e-5
1.084,   1.716e-5
1.085,   1.702e-5
1.086,   1.680e-5
1.087,   1.669e-5
1.088,   1.666e-5
1.089,   1.664e-5
1.090,   1.664e-5
1.091,   1.663e-5
1.092,   1.648e-5
1.093,   1.644e-5
1.094,   1.635e-5
1.095,   1.640e-5
1.096,   1.631e-5
1.097,   1.622e-5
1.098,   1.623e-5
1.099,   1.614e-5
1.100,   1.616e-5
1.101,   1.622e-5
1.102,   1.610e-5
1.103,   1.616e-5
1.104,   1.615e-5
1.105,   1.613e-5
1.106,   1.619e-5
1.107,   1.615e-5
1.108,   1.620e-5
1.109,   1.625e-5
1.110,   1.623e-5
1.111,   1.636e-5
1.112,   1.632e-5
1.113,   1.626e-5
1.114,   1.633e-5
1.115,   1.635e-5
1.116,   1.639e-5
1.117,   1.654e-5
1.118,   1.650e-5
1.119,   1.667e-5
1.120,   1.670e-5
1.121,   1.655e-5
1.122,   1.670e-5
1.123,   1.677e-5
1.124,   1.671e-5
1.125,   1.678e-5
1.126,   1.675e-5
1.127,   1.683e-5
1.128,   1.692e-5
1.129,   1.696e-5
1.130,   1.705e-5
1.131,   1.704e-5
1.132,   1.711e-5
1.133,   1.721e-5
1.134,   1.716e-5
1.135,   1.729e-5
1.136,   1.737e-5
1.137,   1.744e-5
1.138,   1.750e-5
1.139,   1.750e-5
1.140,   1.759e-5
1.141,   1.771e-5
1.142,   1.769e-5
1.143,   1.782e-5
1.144,   1.787e-5
1.145,   1.789e-5
1.146,   1.804e-5
1.147,   1.801e-5
1.148,   1.812e-5
1.149,   1.821e-5
1.150,   1.821e-5
1.151,   1.826e-5
1.152,   1.835e-5
1.153,   1.833e-5
1.154,   1.847e-5
1.155,   1.851e-5
1.156,   1.856e-5
1.157,   1.869e-5
1.158,   1.859e-5
1.159,   1.874e-5
1.160,   1.878e-5
1.161,   1.882e-5
1.162,   1.891e-5
1.163,   1.888e-5
1.164,   1.892e-5
1.165,   1.902e-5
1.166,   1.896e-5
1.167,   1.912e-5
1.168,   1.918e-5
1.169,   1.916e-5
1.170,   1.927e-5
1.171,   1.923e-5
1.172,   1.928e-5
1.173,   1.938e-5
1.174,   1.937e-5
1.175,   1.939e-5
1.176,   1.945e-5
1.177,   1.945e-5
1.178,   1.952e-5
1.179,   1.947e-5
1.180,   1.953e-5
1.181,   1.962e-5
1.182,   1.953e-5
1.183,   1.960e-5
1.184,   1.968e-5
1.185,   1.961e-5
1.186,   1.969e-5
1.187,   1.970e-5
1.188,   1.965e-5
1.189,   1.974e-5
1.190,   1.965e-5
1.191,   1.971e-5
1.192,   1.968e-5
1.193,   1.971e-5
1.194,   1.981e-5
1.195,   1.970e-5
1.196,   1.971e-5
1.197,   1.979e-5
1.198,   1.968e-5
1.199,   1.980e-5
1.200,   1.980e-5
1.201,   1.972e-5
1.202,   1.978e-5
1.203,   1.975e-5
1.204,   1.971e-5
1.205,   1.980e-5
1.206,   1.970e-5
1.207,   1.974e-5
1.208,   1.974e-5
1.209,   1.967e-5
1.210,   1.978e-5
1.211,   1.968e-5
1.212,   1.973e-5
1.213,   1.982e-5
1.214,   1.973e-5
1.215,   1.972e-5
1.216,   1.973e-5
1.217,   1.963e-5
1.218,   1.969e-5
1.219,   1.961e-5
1.220,   1.963e-5
1.221,   1.969e-5
1.222,   1.955e-5
1.223,   1.962e-5
1.224,   1.963e-5
1.225,   1.968e-5
1.226,   1.963e-5
1.227,   1.958e-5
1.228,   1.959e-5
1.229,   1.964e-5
1.230,   1.950e-5
1.231,   1.962e-5
1.232,   1.960e-5
1.233,   1.950e-5
1.234,   1.959e-5
1.235,   1.948e-5
1.236,   1.953e-5
1.237,   1.955e-5
1.238,   1.955e-5
1.239,   1.954e-5
1.240,   1.951e-5
1.241,   1.951e-5
1.242,   1.961e-5
1.243,   1.946e-5
1.244,   1.953e-5
1.245,   1.956e-5
1.246,   1.948e-5
1.247,   1.954e-5
1.248,   1.955e-5
1.249,   1.953e-5
1.250,   1.958e-5
1.251,   1.954e-5
1.252,   1.956e-5
1.253,   1.959e-5
1.254,   1.951e-5
1.255,   1.960e-5
1.256,   1.958e-5
1.257,   1.960e-5
1.258,   1.966e-5
1.259,   1.959e-5
1.260,   1.963e-5
1.261,   1.972e-5
1.262,   1.962e-5
1.263,   1.975e-5
1.264,   1.982e-5
1.265,   1.971e-5
1.266,   1.985e-5
1.267,   1.981e-5
1.268,   1.983e-5
1.269,   1.995e-5
1.270,   1.987e-5
1.271,   1.995e-5
1.272,   1.996e-5
1.273,   2.002e-5
1.274,   2.017e-5
1.275,   2.004e-5
1.276,   2.028e-5
1.277,   2.032e-5
1.278,   2.019e-5
1.279,   2.030e-5
1.280,   2.034e-5
1.281,   2.035e-5
1.282,   2.050e-5
1.283,   2.050e-5
1.284,   2.054e-5
1.285,   2.066e-5
1.286,   2.068e-5
1.287,   2.080e-5
1.288,   2.086e-5
1.289,   2.096e-5
1.290,   2.108e-5
1.291,   2.103e-5
1.292,   2.112e-5
1.293,   2.134e-5
1.294,   2.128e-5
1.295,   2.144e-5
1.296,   2.156e-5
1.297,   2.161e-5
1.298,   2.183e-5
1.299,   2.184e-5
1.300,   2.194e-5
1.301,   2.212e-5
1.302,   2.223e-5
1.303,   2.241e-5
1.304,   2.247e-5
1.305,   2.262e-5
1.306,   2.283e-5
1.307,   2.290e-5
1.308,   2.312e-5
1.309,   2.335e-5
1.310,   2.338e-5
1.311,   2.366e-5
1.312,   2.383e-5
1.313,   2.399e-5
1.314,   2.431e-5
1.315,   2.449e-5
1.316,   2.467e-5
1.317,   2.499e-5
1.318,   2.514e-5
1.319,   2.550e-5
1.320,   2.579e-5
1.321,   2.606e-5
1.322,   2.643e-5
1.323,   2.667e-5
1.324,   2.704e-5
1.325,   2.744e-5
1.326,   2.775e-5
1.327,   2.830e-5
1.328,   2.871e-5
1.329,   2.911e-5
1.330,   2.967e-5
1.331,   3.007e-5
1.332,   3.063e-5
1.333,   3.124e-5
1.334,   3.180e-5
1.335,   3.241e-5
1.336,   3.305e-5
1.337,   3.369e-5
1.338,   3.461e-5
1.339,   3.524e-5
1.340,   3.622e-5
1.341,   3.711e-5
1.342,   3.777e-5
1.343,   3.878e-5
1.344,   3.987e-5
1.345,   4.080e-5
1.346,   4.210e-5
1.347,   4.322e-5
1.348,   4.444e-5
1.349,   4.599e-5
1.350,   4.729e-5
1.351,   4.884e-5
1.352,   5.040e-5
1.353,   5.211e-5
1.354,   5.401e-5
1.355,   5.570e-5
1.356,   5.761e-5
1.357,   5.990e-5
1.358,   6.188e-5
1.359,   6.438e-5
1.360,   6.691e-5
1.361,   6.930e-5
1.362,   7.217e-5
1.363,   7.490e-5
1.364,   7.803e-5
1.365,   8.131e-5
1.366,   8.468e-5
1.367,   8.831e-5
1.368,   9.201e-5
1.369,   9.592e-5
1.370,   1.002e-4
1.371,   1.045e-4
1.372,   1.092e-4
1.373,   1.143e-4
1.374,   1.192e-4
1.375,   1.248e-4
1.376,   1.305e-4
1.377,   1.363e-4
1.378,   1.429e-4
1.379,   1.495e-4
1.380,   1.567e-4
1.381,   1.642e-4
1.382,   1.716e-4
1.383,   1.798e-4
1.384,   1.884e-4
1.385,   1.972e-4
1.386,   2.069e-4
1.387,   2.164e-4
1.388,   2.269e-4
1.389,   2.379e-4
1.390,   2.491e-4
1.391,   2.614e-4
1.392,   2.741e-4
1.393,   2.871e-4
1.394,   3.012e-4
1.395,   3.157e-4
1.396,   3.309e-4
1.397,   3.473e-4
1.398,   3.637e-4
1.399,   3.817e-4
1.400,   4.004e-4
1.401,   4.195e-4
1.402,   4.400e-4
1.403,   4.612e-4
1.404,   4.841e-4
1.405,   5.074e-4
1.406,   5.318e-4
1.407,   5.577e-4
1.408,   5.840e-4
1.409,   6.118e-4
1.410,   6.413e-4
1.411,   6.715e-4
1.412,   7.032e-4
1.413,   7.370e-4
1.414,   7.724e-4
1.415,   8.083e-4
1.416,   8.462e-4
1.417,   8.859e-4
1.418,   9.271e-4
1.419,   9.705e-4
1.420,   1.015e-3
1.421,   1.061e-3
1.422,   1.109e-3
1.423,   1.162e-3
1.424,   1.214e-3
1.425,   1.269e-3
1.426,   1.330e-3
1.427,   1.389e-3
1.428,   1.449e-3
1.429,   1.511e-3
1.430,   1.578e-3
1.431,   1.646e-3
1.432,   1.719e-3
1.433,   1.793e-3
1.434,   1.868e-3
1.435,   1.943e-3
1.436,   2.025e-3
1.437,   2.104e-3
1.438,   2.192e-3
1.439,   2.296e-3
1.440,   2.390e-3
1.441,   2.486e-3
1.442,   2.579e-3
1.443,   2.683e-3
1.444,   2.793e-3
1.445,   2.889e-3
1.446,   3.005e-3
1.447,   3.119e-3
1.448,   3.224e-3
1.449,   3.327e-3
1.450,   3.468e-3
1.451,   3.587e-3
1.452,   3.696e-3
1.453,   3.843e-3
1.454,   3.975e-3
1.455,   4.095e-3
1.456,   4.218e-3
1.457,   4.356e-3
1.458,   4.500e-3
1.459,   4.640e-3
1.460,   4.782e-3
1.461,   4.947e-3
1.462,   5.089e-3
1.463,   5.221e-3
1.464,   5.403e-3
1.465,   5.616e-3
1.466,   5.733e-3
1.467,   5.901e-3
1.468,   6.016e-3
1.469,   6.138e-3
1.470,   6.293e-3
1.471,   6.497e-3
1.472,   6.705e-3
1.473,   6.889e-3
1.474,   7.101e-3
1.475,   7.274e-3
1.476,   7.419e-3
1.477,   7.600e-3
1.478,   7.741e-3
1.479,   7.870e-3
1.480,   8.034e-3
1.481,   8.182e-3
1.482,   8.292e-3
1.483,   8.543e-3
1.484,   8.834e-3
1.485,   9.032e-3
1.486,   9.271e-3
1.487,   9.486e-3
1.488,   9.625e-3
1.489,   9.844e-3
1.490,   1.005e-2
1.491,   1.006e-2
1.492,   1.006e-2
1.493,   1.006e-2
1.494,   1.006e-2
1.495,   1.006e-2
1.496,   1.006e-2
1.497,   1.006e-2
1.498,   1.006e-2
1.499,   1.006e-2
1.500,   1.006e-2
1.501,   1.006e-2
1.502,   1.006e-2
1.503,   1.006e-2
1.504,   1.006e-2
1.505,   1.006e-2
1.506,   1.006e-2
1.507,   1.006e-2
1.508,   1.006e-2
1.509,   1.006e-2
1.510,   1.006e-2
1.511,   1.006e-2
1.512,   1.006e-2
1.513,   1.006e-2
1.514,   1.006e-2
1.515,   1.006e-2
1.516,   1.006e-2
1.517,   1.006e-2
1.518,   1.006e-2
1.519,   1.006e-2
1.520,   1.006e-2
1.521,   1.006e-2
1.522,   1.006e-2
1.523,   1.006e-2
1.524,   1.006e-2
1.525,   1.006e-2
1.526,   1.006e-2
1.527,   1.006e-2
1.528,   1.006e-2
1.529,   1.006e-2
1.530,   1.006e-2
1.531,   1.006e-2
1.532,   1.006e-2
1.533,   1.006e-2
1.534,   1.006e-2
1.535,   1.006e-2
1.536,   1.006e-2
1.537,   1.006e-2
1.538,   1.006e-2
1.539,   1.006e-2
1.540,   1.006e-2
1.541,   1.006e-2
1.542,   1.006e-2
1.543,   1.006e-2
1.544,   1.006e-2
1.545,   1.006e-2
1.546,   1.006e-2
1.547,   1.006e-2
1.548,   1.006e-2
1.549,   1.006e-2
1.550,   1.006e-2