File: Experimental Records and Raw Data/batch4/final400/B4_BEST_400_#6_Full-205mV.txt
Mar. 27, 2023   15:43:12
Linear Sweep Voltammetry
File: d:\current work\al_oer\electrochemical test data\batch 4\400\B4_BEST_400_#6_Full-205mV.txt
Data Source:  Experiment
Instrument Model:  CHI660E
Header:
Note:

Init E (V) = 1.076

Final E (V) = 1.503

Scan Rate (V/s) = 0.010
Sample Interval (V) = 0.001
Quiet Time (sec) = 2
Sensitivity (A/V) = 0.001
Comp R (ohm) = 5.8

Results:

Channel 1:

Potential/V, Current/A
1.076,  	1.004E-04
1.077,  	9.252E-05
1.078,  	9.347E-05
1.079,  	8.360E-05
1.080,  	8.210E-05
1.081,  	7.612E-05
1.082,  	7.444E-05
1.083,  	7.300E-05
1.084,  	7.179E-05
1.085,  	6.599E-05
1.086,  	6.718E-05
1.087,  	6.134E-05
1.088,  	6.022E-05
1.089,  	6.159E-05
1.090,  	5.657E-05
1.091,  	5.814E-05
1.092,  	5.462E-05
1.093,  	5.573E-05
1.094,  	5.408E-05
1.095,  	5.401E-05
1.096,  	5.159E-05
1.097,  	5.171E-05
1.098,  	4.926E-05
1.099,  	4.949E-05
1.100,  	4.920E-05
1.101,  	4.707E-05
1.102,  	4.645E-05
1.103,  	4.492E-05
1.104,  	4.712E-05
1.105,  	4.429E-05
1.106,  	4.551E-05
1.107,  	4.378E-05
1.108,  	4.456E-05
1.109,  	4.200E-05
1.110,  	4.378E-05
1.111,  	4.161E-05
1.112,  	4.168E-05
1.113,  	4.251E-05
1.114,  	4.091E-05
1.115,  	4.145E-05
1.116,  	3.948E-05
1.117,  	3.919E-05
1.118,  	4.093E-05
1.119,  	4.024E-05
1.120,  	3.919E-05
1.121,  	3.816E-05
1.122,  	3.875E-05
1.123,  	3.930E-05
1.124,  	3.863E-05
1.125,  	3.921E-05
1.126,  	3.940E-05
1.127,  	3.839E-05
1.128,  	3.866E-05
1.129,  	3.699E-05
1.130,  	3.757E-05
1.131,  	3.857E-05
1.132,  	3.691E-05
1.133,  	3.826E-05
1.134,  	3.741E-05
1.135,  	3.727E-05
1.136,  	3.644E-05
1.137,  	3.737E-05
1.138,  	3.611E-05
1.139,  	3.605E-05
1.140,  	3.737E-05
1.141,  	3.547E-05
1.142,  	3.719E-05
1.143,  	3.562E-05
1.144,  	3.627E-05
1.145,  	3.652E-05
1.146,  	3.675E-05
1.147,  	3.641E-05
1.148,  	3.526E-05
1.149,  	3.550E-05
1.150,  	3.617E-05
1.151,  	3.639E-05
1.152,  	3.567E-05
1.153,  	3.488E-05
1.154,  	3.447E-05
1.155,  	3.481E-05
1.156,  	3.507E-05
1.157,  	3.398E-05
1.158,  	3.602E-05
1.159,  	3.453E-05
1.160,  	3.601E-05
1.161,  	3.556E-05
1.162,  	3.443E-05
1.163,  	3.582E-05
1.164,  	3.366E-05
1.165,  	3.505E-05
1.166,  	3.368E-05
1.167,  	3.499E-05
1.168,  	3.460E-05
1.169,  	3.491E-05
1.170,  	3.455E-05
1.171,  	3.351E-05
1.172,  	3.377E-05
1.173,  	3.452E-05
1.174,  	3.482E-05
1.175,  	3.338E-05
1.176,  	3.376E-05
1.177,  	3.443E-05
1.178,  	3.476E-05
1.179,  	3.514E-05
1.180,  	3.406E-05
1.181,  	3.509E-05
1.182,  	3.370E-05
1.183,  	3.435E-05
1.184,  	3.369E-05
1.185,  	3.543E-05
1.186,  	3.337E-05
1.187,  	3.340E-05
1.188,  	3.470E-05
1.189,  	3.338E-05
1.190,  	3.546E-05
1.191,  	3.434E-05
1.192,  	3.540E-05
1.193,  	3.544E-05
1.194,  	3.335E-05
1.195,  	3.377E-05
1.196,  	3.412E-05
1.197,  	3.514E-05
1.198,  	3.519E-05
1.199,  	3.483E-05
1.200,  	3.559E-05
1.201,  	3.350E-05
1.202,  	3.457E-05
1.203,  	3.427E-05
1.204,  	3.354E-05
1.205,  	3.429E-05
1.206,  	3.505E-05
1.207,  	3.535E-05
1.208,  	3.540E-05
1.209,  	3.513E-05
1.210,  	3.549E-05
1.211,  	3.557E-05
1.212,  	3.418E-05
1.213,  	3.490E-05
1.214,  	3.493E-05
1.215,  	3.389E-05
1.216,  	3.400E-05
1.217,  	3.433E-05
1.218,  	3.439E-05
1.219,  	3.618E-05
1.220,  	3.618E-05
1.221,  	3.411E-05
1.222,  	3.630E-05
1.223,  	3.593E-05
1.224,  	3.640E-05
1.225,  	3.640E-05
1.226,  	3.609E-05
1.227,  	3.476E-05
1.228,  	3.616E-05
1.229,  	3.482E-05
1.230,  	3.629E-05
1.231,  	3.634E-05
1.232,  	3.500E-05
1.233,  	3.464E-05
1.234,  	3.613E-05
1.235,  	3.661E-05
1.236,  	3.586E-05
1.237,  	3.597E-05
1.238,  	3.570E-05
1.239,  	3.713E-05
1.240,  	3.686E-05
1.241,  	3.620E-05
1.242,  	3.731E-05
1.243,  	3.599E-05
1.244,  	3.672E-05
1.245,  	3.753E-05
1.246,  	3.727E-05
1.247,  	3.765E-05
1.248,  	3.780E-05
1.249,  	3.744E-05
1.250,  	3.756E-05
1.251,  	3.620E-05
1.252,  	3.728E-05
1.253,  	3.704E-05
1.254,  	3.787E-05
1.255,  	3.823E-05
1.256,  	3.836E-05
1.257,  	3.617E-05
1.258,  	3.774E-05
1.259,  	3.633E-05
1.260,  	3.675E-05
1.261,  	3.646E-05
1.262,  	3.694E-05
1.263,  	3.852E-05
1.264,  	3.896E-05
1.265,  	3.753E-05
1.266,  	3.722E-05
1.267,  	3.696E-05
1.268,  	3.738E-05
1.269,  	3.869E-05
1.270,  	3.918E-05
1.271,  	3.764E-05
1.272,  	3.820E-05
1.273,  	3.863E-05
1.274,  	3.759E-05
1.275,  	3.778E-05
1.276,  	3.980E-05
1.277,  	3.837E-05
1.278,  	3.890E-05
1.279,  	3.969E-05
1.280,  	3.829E-05
1.281,  	3.876E-05
1.282,  	3.851E-05
1.283,  	3.990E-05
1.284,  	4.033E-05
1.285,  	4.053E-05
1.286,  	4.073E-05
1.287,  	4.157E-05
1.288,  	3.980E-05
1.289,  	4.197E-05
1.290,  	3.962E-05
1.291,  	4.018E-05
1.292,  	3.992E-05
1.293,  	4.253E-05
1.294,  	4.230E-05
1.295,  	4.041E-05
1.296,  	4.140E-05
1.297,  	4.155E-05
1.298,  	4.340E-05
1.299,  	4.198E-05
1.300,  	4.334E-05
1.301,  	4.238E-05
1.302,  	4.260E-05
1.303,  	4.266E-05
1.304,  	4.248E-05
1.305,  	4.442E-05
1.306,  	4.503E-05
1.307,  	4.443E-05
1.308,  	4.373E-05
1.309,  	4.484E-05
1.310,  	4.560E-05
1.311,  	4.621E-05
1.312,  	4.381E-05
1.313,  	4.443E-05
1.314,  	4.519E-05
1.315,  	4.639E-05
1.316,  	4.750E-05
1.317,  	4.552E-05
1.318,  	4.821E-05
1.319,  	4.653E-05
1.320,  	4.879E-05
1.321,  	4.815E-05
1.322,  	4.701E-05
1.323,  	4.881E-05
1.324,  	4.915E-05
1.325,  	5.045E-05
1.326,  	5.090E-05
1.327,  	5.078E-05
1.328,  	5.019E-05
1.329,  	5.206E-05
1.330,  	5.192E-05
1.331,  	5.192E-05
1.332,  	5.332E-05
1.333,  	5.382E-05
1.334,  	5.280E-05
1.335,  	5.480E-05
1.336,  	5.218E-05
1.337,  	5.592E-05
1.338,  	5.537E-05
1.339,  	5.491E-05
1.340,  	5.545E-05
1.341,  	5.660E-05
1.342,  	5.663E-05
1.343,  	5.613E-05
1.344,  	5.751E-05
1.345,  	5.885E-05
1.346,  	5.841E-05
1.347,  	6.229E-05
1.348,  	6.364E-05
1.349,  	6.277E-05
1.350,  	6.510E-05
1.351,  	6.601E-05
1.352,  	6.390E-05
1.353,  	6.579E-05
1.354,  	6.823E-05
1.355,  	7.024E-05
1.356,  	6.937E-05
1.357,  	7.450E-05
1.358,  	7.244E-05
1.359,  	7.477E-05
1.360,  	7.815E-05
1.361,  	8.153E-05
1.362,  	7.864E-05
1.363,  	8.067E-05
1.364,  	8.615E-05
1.365,  	9.032E-05
1.366,  	8.749E-05
1.367,  	9.183E-05
1.368,  	9.472E-05
1.369,  	9.574E-05
1.370,  	1.019E-04
1.371,  	1.075E-04
1.372,  	1.124E-04
1.373,  	1.119E-04
1.374,  	1.161E-04
1.375,  	1.192E-04
1.376,  	1.289E-04
1.377,  	1.327E-04
1.378,  	1.327E-04
1.379,  	1.440E-04
1.380,  	1.455E-04
1.381,  	1.581E-04
1.382,  	1.651E-04
1.383,  	1.657E-04
1.384,  	1.768E-04
1.385,  	1.887E-04
1.386,  	1.976E-04
1.387,  	1.967E-04
1.388,  	2.188E-04
1.389,  	2.227E-04
1.390,  	2.359E-04
1.391,  	2.500E-04
1.392,  	2.624E-04
1.393,  	2.754E-04
1.394,  	2.836E-04
1.395,  	2.890E-04
1.396,  	3.034E-04
1.397,  	3.254E-04
1.398,  	3.523E-04
1.399,  	3.700E-04
1.400,  	3.773E-04
1.401,  	4.084E-04
1.402,  	4.291E-04
1.403,  	4.464E-04
1.404,  	4.550E-04
1.405,  	4.977E-04
1.406,  	5.123E-04
1.407,  	5.487E-04
1.408,  	5.817E-04
1.409,  	5.751E-04
1.410,  	6.350E-04
1.411,  	6.599E-04
1.412,  	6.784E-04
1.413,  	7.190E-04
1.414,  	7.540E-04
1.415,  	8.142E-04
1.416,  	8.118E-04
1.417,  	8.422E-04
1.418,  	9.004E-04
1.419,  	9.335E-04
1.420,  	9.970E-04
1.421,  	1.075E-03
1.422,  	1.070E-03
1.423,  	1.153E-03
1.424,  	1.206E-03
1.425,  	1.274E-03
1.426,  	1.265E-03
1.427,  	1.321E-03
1.428,  	1.436E-03
1.429,  	1.454E-03
1.430,  	1.502E-03
1.431,  	1.662E-03
1.432,  	1.732E-03
1.433,  	1.735E-03
1.434,  	1.828E-03
1.435,  	1.846E-03
1.436,  	1.960E-03
1.437,  	2.100E-03
1.438,  	2.120E-03
1.439,  	2.158E-03
1.440,  	2.288E-03
1.441,  	2.469E-03
1.442,  	2.512E-03
1.443,  	2.580E-03
1.444,  	2.726E-03
1.445,  	2.824E-03
1.446,  	2.841E-03
1.447,  	2.972E-03
1.448,  	3.107E-03
1.449,  	3.247E-03
1.450,  	3.224E-03
1.451,  	3.299E-03
1.452,  	3.442E-03
1.453,  	3.589E-03
1.454,  	3.815E-03
1.455,  	3.780E-03
1.456,  	4.056E-03
1.457,  	3.976E-03
1.458,  	4.145E-03
1.459,  	4.485E-03
1.460,  	4.386E-03
1.461,  	4.549E-03
1.462,  	4.771E-03
1.463,  	4.808E-03
1.464,  	5.083E-03
1.465,  	5.263E-03
1.466,  	5.293E-03
1.467,  	5.479E-03
1.468,  	5.448E-03
1.469,  	5.799E-03
1.470,  	5.828E-03
1.471,  	5.904E-03
1.472,  	6.151E-03
1.473,  	6.344E-03
1.474,  	6.483E-03
1.475,  	6.623E-03
1.476,  	6.379E-03
1.477,  	6.925E-03
1.478,  	6.841E-03
1.479,  	6.991E-03
1.480,  	7.287E-03
1.481,  	7.458E-03
1.482,  	7.557E-03
1.483,  	7.844E-03
1.484,  	7.645E-03
1.485,  	7.920E-03
1.486,  	8.194E-03
1.487,  	8.355E-03
1.488,  	7.990E-03
1.489,  	8.497E-03
1.490,  	8.513E-03
1.491,  	8.737E-03
1.492,  	8.695E-03
1.493,  	8.993E-03
1.494,  	9.118E-03
1.495,  	9.044E-03
1.496,  	9.402E-03
1.497,  	9.497E-03
1.498,  	9.070E-03
1.499,  	9.260E-03
1.500,  	9.356E-03
1.501,  	9.648E-03
1.502,  	9.673E-03
1.503,  	1.017E-02