File: Experimental Records and Raw Data/batch4/final400/B4_VARIANCE_400_#5_Full(#13)-397mV.txt
Mar. 26, 2023   16:28:08
Linear Sweep Voltammetry
File: d:\current work\al_oer\electrochemical test data\batch 4\400\B4_VARIANCE_400_#5_Full(#13)-397mV.txt
Data Source:  Experiment
Instrument Model:  CHI660E
Header:
Note:

Init E (V) = 1.052

Final E (V) = 1.651

Scan Rate (V/s) = 0.010
Sample Interval (V) = 0.001
Quiet Time (sec) = 2
Sensitivity (A/V) = 0.001
Comp R (ohm) = 5.2

Results:

Channel 1:

Potential/V, Current/A
1.052,   7.204e-6
1.053,   7.094e-6
1.054,   6.763e-6
1.055,   6.421e-6
1.056,   6.136e-6
1.057,   5.890e-6
1.058,   5.654e-6
1.059,   5.455e-6
1.060,   5.241e-6
1.061,   5.052e-6
1.062,   4.864e-6
1.063,   4.737e-6
1.064,   4.600e-6
1.065,   4.468e-6
1.066,   4.342e-6
1.067,   4.253e-6
1.068,   4.106e-6
1.069,   4.025e-6
1.070,   3.919e-6
1.071,   3.852e-6
1.072,   3.774e-6
1.073,   3.710e-6
1.074,   3.622e-6
1.075,   3.557e-6
1.076,   3.483e-6
1.077,   3.392e-6
1.078,   3.356e-6
1.079,   3.296e-6
1.080,   3.236e-6
1.081,   3.204e-6
1.082,   3.138e-6
1.083,   3.110e-6
1.084,   3.076e-6
1.085,   3.017e-6
1.086,   2.989e-6
1.087,   2.965e-6
1.088,   2.919e-6
1.089,   2.865e-6
1.090,   2.875e-6
1.091,   2.853e-6
1.092,   2.814e-6
1.093,   2.750e-6
1.094,   2.734e-6
1.095,   2.714e-6
1.096,   2.719e-6
1.097,   2.693e-6
1.098,   2.662e-6
1.099,   2.616e-6
1.100,   2.617e-6
1.101,   2.596e-6
1.102,   2.593e-6
1.103,   2.599e-6
1.104,   2.562e-6
1.105,   2.510e-6
1.106,   2.528e-6
1.107,   2.521e-6
1.108,   2.526e-6
1.109,   2.508e-6
1.110,   2.507e-6
1.111,   2.475e-6
1.112,   2.465e-6
1.113,   2.465e-6
1.114,   2.466e-6
1.115,   2.412e-6
1.116,   2.436e-6
1.117,   2.448e-6
1.118,   2.425e-6
1.119,   2.376e-6
1.120,   2.395e-6
1.121,   2.427e-6
1.122,   2.405e-6
1.123,   2.400e-6
1.124,   2.405e-6
1.125,   2.392e-6
1.126,   2.395e-6
1.127,   2.359e-6
1.128,   2.368e-6
1.129,   2.377e-6
1.130,   2.349e-6
1.131,   2.339e-6
1.132,   2.346e-6
1.133,   2.371e-6
1.134,   2.397e-6
1.135,   2.379e-6
1.136,   2.374e-6
1.137,   2.362e-6
1.138,   2.329e-6
1.139,   2.332e-6
1.140,   2.346e-6
1.141,   2.339e-6
1.142,   2.369e-6
1.143,   2.353e-6
1.144,   2.344e-6
1.145,   2.378e-6
1.146,   2.320e-6
1.147,   2.346e-6
1.148,   2.343e-6
1.149,   2.374e-6
1.150,   2.357e-6
1.151,   2.365e-6
1.152,   2.367e-6
1.153,   2.357e-6
1.154,   2.369e-6
1.155,   2.363e-6
1.156,   2.351e-6
1.157,   2.347e-6
1.158,   2.375e-6
1.159,   2.381e-6
1.160,   2.371e-6
1.161,   2.379e-6
1.162,   2.404e-6
1.163,   2.369e-6
1.164,   2.383e-6
1.165,   2.383e-6
1.166,   2.368e-6
1.167,   2.383e-6
1.168,   2.383e-6
1.169,   2.384e-6
1.170,   2.408e-6
1.171,   2.407e-6
1.172,   2.376e-6
1.173,   2.379e-6
1.174,   2.399e-6
1.175,   2.390e-6
1.176,   2.427e-6
1.177,   2.445e-6
1.178,   2.437e-6
1.179,   2.417e-6
1.180,   2.431e-6
1.181,   2.425e-6
1.182,   2.435e-6
1.183,   2.419e-6
1.184,   2.438e-6
1.185,   2.414e-6
1.186,   2.445e-6
1.187,   2.425e-6
1.188,   2.439e-6
1.189,   2.447e-6
1.190,   2.447e-6
1.191,   2.476e-6
1.192,   2.483e-6
1.193,   2.476e-6
1.194,   2.441e-6
1.195,   2.464e-6
1.196,   2.451e-6
1.197,   2.460e-6
1.198,   2.463e-6
1.199,   2.471e-6
1.200,   2.495e-6
1.201,   2.476e-6
1.202,   2.485e-6
1.203,   2.496e-6
1.204,   2.471e-6
1.205,   2.488e-6
1.206,   2.509e-6
1.207,   2.498e-6
1.208,   2.508e-6
1.209,   2.521e-6
1.210,   2.526e-6
1.211,   2.526e-6
1.212,   2.514e-6
1.213,   2.523e-6
1.214,   2.551e-6
1.215,   2.557e-6
1.216,   2.557e-6
1.217,   2.538e-6
1.218,   2.541e-6
1.219,   2.549e-6
1.220,   2.553e-6
1.221,   2.559e-6
1.222,   2.561e-6
1.223,   2.563e-6
1.224,   2.578e-6
1.225,   2.586e-6
1.226,   2.575e-6
1.227,   2.583e-6
1.228,   2.571e-6
1.229,   2.604e-6
1.230,   2.637e-6
1.231,   2.584e-6
1.232,   2.625e-6
1.233,   2.624e-6
1.234,   2.639e-6
1.235,   2.642e-6
1.236,   2.644e-6
1.237,   2.632e-6
1.238,   2.639e-6
1.239,   2.633e-6
1.240,   2.660e-6
1.241,   2.681e-6
1.242,   2.650e-6
1.243,   2.681e-6
1.244,   2.667e-6
1.245,   2.692e-6
1.246,   2.691e-6
1.247,   2.715e-6
1.248,   2.721e-6
1.249,   2.715e-6
1.250,   2.739e-6
1.251,   2.739e-6
1.252,   2.738e-6
1.253,   2.753e-6
1.254,   2.739e-6
1.255,   2.751e-6
1.256,   2.770e-6
1.257,   2.759e-6
1.258,   2.776e-6
1.259,   2.756e-6
1.260,   2.764e-6
1.261,   2.792e-6
1.262,   2.807e-6
1.263,   2.816e-6
1.264,   2.800e-6
1.265,   2.840e-6
1.266,   2.853e-6
1.267,   2.828e-6
1.268,   2.844e-6
1.269,   2.858e-6
1.270,   2.875e-6
1.271,   2.876e-6
1.272,   2.922e-6
1.273,   2.924e-6
1.274,   2.909e-6
1.275,   2.933e-6
1.276,   2.933e-6
1.277,   2.921e-6
1.278,   2.972e-6
1.279,   2.968e-6
1.280,   2.949e-6
1.281,   3.013e-6
1.282,   3.008e-6
1.283,   2.990e-6
1.284,   3.025e-6
1.285,   3.024e-6
1.286,   3.043e-6
1.287,   3.053e-6
1.288,   3.081e-6
1.289,   3.087e-6
1.290,   3.096e-6
1.291,   3.113e-6
1.292,   3.127e-6
1.293,   3.138e-6
1.294,   3.158e-6
1.295,   3.145e-6
1.296,   3.180e-6
1.297,   3.180e-6
1.298,   3.202e-6
1.299,   3.243e-6
1.300,   3.243e-6
1.301,   3.237e-6
1.302,   3.257e-6
1.303,   3.287e-6
1.304,   3.302e-6
1.305,   3.314e-6
1.306,   3.317e-6
1.307,   3.345e-6
1.308,   3.366e-6
1.309,   3.380e-6
1.310,   3.388e-6
1.311,   3.383e-6
1.312,   3.434e-6
1.313,   3.431e-6
1.314,   3.470e-6
1.315,   3.509e-6
1.316,   3.524e-6
1.317,   3.525e-6
1.318,   3.539e-6
1.319,   3.560e-6
1.320,   3.577e-6
1.321,   3.626e-6
1.322,   3.612e-6
1.323,   3.639e-6
1.324,   3.643e-6
1.325,   3.679e-6
1.326,   3.728e-6
1.327,   3.748e-6
1.328,   3.775e-6
1.329,   3.784e-6
1.330,   3.817e-6
1.331,   3.837e-6
1.332,   3.869e-6
1.333,   3.900e-6
1.334,   3.932e-6
1.335,   3.923e-6
1.336,   3.970e-6
1.337,   4.027e-6
1.338,   4.059e-6
1.339,   4.109e-6
1.340,   4.122e-6
1.341,   4.146e-6
1.342,   4.195e-6
1.343,   4.242e-6
1.344,   4.271e-6
1.345,   4.304e-6
1.346,   4.372e-6
1.347,   4.399e-6
1.348,   4.439e-6
1.349,   4.501e-6
1.350,   4.544e-6
1.351,   4.588e-6
1.352,   4.628e-6
1.353,   4.691e-6
1.354,   4.764e-6
1.355,   4.823e-6
1.356,   4.859e-6
1.357,   4.932e-6
1.358,   4.979e-6
1.359,   5.049e-6
1.360,   5.161e-6
1.361,   5.194e-6
1.362,   5.247e-6
1.363,   5.398e-6
1.364,   5.436e-6
1.365,   5.516e-6
1.366,   5.634e-6
1.367,   5.739e-6
1.368,   5.828e-6
1.369,   5.912e-6
1.370,   6.012e-6
1.371,   6.140e-6
1.372,   6.260e-6
1.373,   6.380e-6
1.374,   6.530e-6
1.375,   6.667e-6
1.376,   6.812e-6
1.377,   6.933e-6
1.378,   7.124e-6
1.379,   7.311e-6
1.380,   7.444e-6
1.381,   7.657e-6
1.382,   7.848e-6
1.383,   8.028e-6
1.384,   8.226e-6
1.385,   8.432e-6
1.386,   8.692e-6
1.387,   8.964e-6
1.388,   9.198e-6
1.389,   9.456e-6
1.390,   9.741e-6
1.391,   1.005e-5
1.392,   1.039e-5
1.393,   1.073e-5
1.394,   1.104e-5
1.395,   1.140e-5
1.396,   1.178e-5
1.397,   1.221e-5
1.398,   1.263e-5
1.399,   1.305e-5
1.400,   1.353e-5
1.401,   1.398e-5
1.402,   1.450e-5
1.403,   1.505e-5
1.404,   1.563e-5
1.405,   1.621e-5
1.406,   1.683e-5
1.407,   1.745e-5
1.408,   1.814e-5
1.409,   1.886e-5
1.410,   1.961e-5
1.411,   2.047e-5
1.412,   2.132e-5
1.413,   2.219e-5
1.414,   2.314e-5
1.415,   2.409e-5
1.416,   2.512e-5
1.417,   2.618e-5
1.418,   2.733e-5
1.419,   2.851e-5
1.420,   2.969e-5
1.421,   3.098e-5
1.422,   3.238e-5
1.423,   3.377e-5
1.424,   3.526e-5
1.425,   3.680e-5
1.426,   3.831e-5
1.427,   3.999e-5
1.428,   4.176e-5
1.429,   4.358e-5
1.430,   4.553e-5
1.431,   4.756e-5
1.432,   4.965e-5
1.433,   5.187e-5
1.434,   5.416e-5
1.435,   5.650e-5
1.436,   5.892e-5
1.437,   6.153e-5
1.438,   6.425e-5
1.439,   6.705e-5
1.440,   6.995e-5
1.441,   7.295e-5
1.442,   7.612e-5
1.443,   7.944e-5
1.444,   8.285e-5
1.445,   8.638e-5
1.446,   9.001e-5
1.447,   9.375e-5
1.448,   9.762e-5
1.449,   1.016e-4
1.450,   1.057e-4
1.451,   1.101e-4
1.452,   1.145e-4
1.453,   1.190e-4
1.454,   1.237e-4
1.455,   1.285e-4
1.456,   1.335e-4
1.457,   1.386e-4
1.458,   1.439e-4
1.459,   1.493e-4
1.460,   1.548e-4
1.461,   1.604e-4
1.462,   1.662e-4
1.463,   1.720e-4
1.464,   1.780e-4
1.465,   1.841e-4
1.466,   1.902e-4
1.467,   1.964e-4
1.468,   2.025e-4
1.469,   2.089e-4
1.470,   2.154e-4
1.471,   2.219e-4
1.472,   2.285e-4
1.473,   2.353e-4
1.474,   2.420e-4
1.475,   2.489e-4
1.476,   2.558e-4
1.477,   2.628e-4
1.478,   2.700e-4
1.479,   2.772e-4
1.480,   2.844e-4
1.481,   2.917e-4
1.482,   2.991e-4
1.483,   3.067e-4
1.484,   3.142e-4
1.485,   3.218e-4
1.486,   3.295e-4
1.487,   3.372e-4
1.488,   3.450e-4
1.489,   3.528e-4
1.490,   3.606e-4
1.491,   3.686e-4
1.492,   3.768e-4
1.493,   3.851e-4
1.494,   3.933e-4
1.495,   4.017e-4
1.496,   4.103e-4
1.497,   4.192e-4
1.498,   4.283e-4
1.499,   4.373e-4
1.500,   4.467e-4
1.501,   4.559e-4
1.502,   4.652e-4
1.503,   4.751e-4
1.504,   4.852e-4
1.505,   4.954e-4
1.506,   5.060e-4
1.507,   5.178e-4
1.508,   5.289e-4
1.509,   5.398e-4
1.510,   5.510e-4
1.511,   5.622e-4
1.512,   5.736e-4
1.513,   5.852e-4
1.514,   5.971e-4
1.515,   6.090e-4
1.516,   6.211e-4
1.517,   6.335e-4
1.518,   6.459e-4
1.519,   6.587e-4
1.520,   6.714e-4
1.521,   6.844e-4
1.522,   6.975e-4
1.523,   7.106e-4
1.524,   7.240e-4
1.525,   7.380e-4
1.526,   7.520e-4
1.527,   7.662e-4
1.528,   7.809e-4
1.529,   7.956e-4
1.530,   8.104e-4
1.531,   8.254e-4
1.532,   8.403e-4
1.533,   8.560e-4
1.534,   8.718e-4
1.535,   8.866e-4
1.536,   9.016e-4
1.537,   9.173e-4
1.538,   9.328e-4
1.539,   9.477e-4
1.540,   9.626e-4
1.541,   9.784e-4
1.542,   9.951e-4
1.543,   1.011e-3
1.544,   1.027e-3
1.545,   1.042e-3
1.546,   1.059e-3
1.547,   1.075e-3
1.548,   1.091e-3
1.549,   1.107e-3
1.550,   1.123e-3
1.551,   1.140e-3
1.552,   1.155e-3
1.553,   1.172e-3
1.554,   1.189e-3
1.555,   1.207e-3
1.556,   1.223e-3
1.557,   1.236e-3
1.558,   1.252e-3
1.559,   1.269e-3
1.560,   1.282e-3
1.561,   1.296e-3
1.562,   1.311e-3
1.563,   1.324e-3
1.564,   1.341e-3
1.565,   1.358e-3
1.566,   1.373e-3
1.567,   1.385e-3
1.568,   1.402e-3
1.569,   1.417e-3
1.570,   1.430e-3
1.571,   1.448e-3
1.572,   1.458e-3
1.573,   1.471e-3
1.574,   1.482e-3
1.575,   1.497e-3
1.576,   1.510e-3
1.577,   1.523e-3
1.578,   1.537e-3
1.579,   1.550e-3
1.580,   1.562e-3
1.581,   1.571e-3
1.582,   1.586e-3
1.583,   1.592e-3
1.584,   1.603e-3
1.585,   1.613e-3
1.586,   1.625e-3
1.587,   1.633e-3
1.588,   1.647e-3
1.589,   1.661e-3
1.590,   1.671e-3
1.591,   1.683e-3
1.592,   1.688e-3
1.593,   1.697e-3
1.594,   1.706e-3
1.595,   1.717e-3
1.596,   1.727e-3
1.597,   1.736e-3
1.598,   1.741e-3
1.599,   1.750e-3
1.600,   1.762e-3
1.601,   1.775e-3
1.602,   1.792e-3
1.603,   1.816e-3
1.604,   1.822e-3
1.605,   1.830e-3
1.606,   1.839e-3
1.607,   1.845e-3
1.608,   1.852e-3
1.609,   1.851e-3
1.610,   1.855e-3
1.611,   1.863e-3
1.612,   1.871e-3
1.613,   1.880e-3
1.614,   1.885e-3
1.615,   1.893e-3
1.616,   1.901e-3
1.617,   1.910e-3
1.618,   1.917e-3
1.619,   1.923e-3
1.620,   1.928e-3
1.621,   1.933e-3
1.622,   1.940e-3
1.623,   1.944e-3
1.624,   1.945e-3
1.625,   1.946e-3
1.626,   1.950e-3
1.627,   1.955e-3
1.628,   1.961e-3
1.629,   1.967e-3
1.630,   1.971e-3
1.631,   1.973e-3
1.632,   1.989e-3
1.633,   1.995e-3
1.634,   1.995e-3
1.635,   2.000e-3
1.636,   2.008e-3
1.637,   2.013e-3
1.638,   2.019e-3
1.639,   2.023e-3
1.640,   2.025e-3
1.641,   2.027e-3
1.642,   2.028e-3
1.643,   2.029e-3
1.644,   2.036e-3
1.645,   2.039e-3
1.646,   2.041e-3
1.647,   2.039e-3
1.648,   2.040e-3
1.649,   2.043e-3
1.650,   2.048e-3
1.651,   2.051e-3