File: Experimental Records and Raw Data/batch4/final400/B4_VARIANCE_400_#6_Full(#14)-332mV.txt
Mar. 24, 2023   15:19:23
Linear Sweep Voltammetry
File: d:\current work\al_oer\electrochemical test data\batch 4\400\B4_VARIANCE_400_#6_Full(#14)-332mV.txt
Data Source:  Experiment
Instrument Model:  CHI660E
Header:
Note:

Init E (V) = 1.111

Final E (V) = 1.610

Scan Rate (V/s) = 0.010
Sample Interval (V) = 0.001
Quiet Time (sec) = 2
Sensitivity (A/V) = 0.001
Comp R (ohm) = 7.2

Results:

Channel 1:

Potential/V, Current/A
1.111,   9.416e-6
1.112,   9.821e-6
1.113,   9.395e-6
1.114,   8.946e-6
1.115,   8.581e-6
1.116,   8.268e-6
1.117,   7.974e-6
1.118,   7.749e-6
1.119,   7.527e-6
1.120,   7.311e-6
1.121,   7.137e-6
1.122,   6.911e-6
1.123,   6.754e-6
1.124,   6.615e-6
1.125,   6.490e-6
1.126,   6.346e-6
1.127,   6.227e-6
1.128,   6.121e-6
1.129,   6.025e-6
1.130,   5.917e-6
1.131,   5.852e-6
1.132,   5.784e-6
1.133,   5.700e-6
1.134,   5.616e-6
1.135,   5.558e-6
1.136,   5.496e-6
1.137,   5.434e-6
1.138,   5.356e-6
1.139,   5.328e-6
1.140,   5.278e-6
1.141,   5.233e-6
1.142,   5.212e-6
1.143,   5.136e-6
1.144,   5.101e-6
1.145,   5.094e-6
1.146,   5.027e-6
1.147,   5.000e-6
1.148,   4.998e-6
1.149,   4.969e-6
1.150,   4.961e-6
1.151,   4.913e-6
1.152,   4.885e-6
1.153,   4.854e-6
1.154,   4.837e-6
1.155,   4.790e-6
1.156,   4.790e-6
1.157,   4.799e-6
1.158,   4.779e-6
1.159,   4.746e-6
1.160,   4.742e-6
1.161,   4.745e-6
1.162,   4.688e-6
1.163,   4.694e-6
1.164,   4.704e-6
1.165,   4.660e-6
1.166,   4.681e-6
1.167,   4.672e-6
1.168,   4.640e-6
1.169,   4.654e-6
1.170,   4.671e-6
1.171,   4.638e-6
1.172,   4.622e-6
1.173,   4.608e-6
1.174,   4.615e-6
1.175,   4.621e-6
1.176,   4.614e-6
1.177,   4.632e-6
1.178,   4.611e-6
1.179,   4.623e-6
1.180,   4.621e-6
1.181,   4.609e-6
1.182,   4.621e-6
1.183,   4.620e-6
1.184,   4.621e-6
1.185,   4.604e-6
1.186,   4.607e-6
1.187,   4.618e-6
1.188,   4.630e-6
1.189,   4.606e-6
1.190,   4.613e-6
1.191,   4.604e-6
1.192,   4.634e-6
1.193,   4.634e-6
1.194,   4.610e-6
1.195,   4.639e-6
1.196,   4.640e-6
1.197,   4.642e-6
1.198,   4.654e-6
1.199,   4.644e-6
1.200,   4.637e-6
1.201,   4.658e-6
1.202,   4.708e-6
1.203,   4.694e-6
1.204,   4.672e-6
1.205,   4.687e-6
1.206,   4.684e-6
1.207,   4.687e-6
1.208,   4.698e-6
1.209,   4.704e-6
1.210,   4.711e-6
1.211,   4.714e-6
1.212,   4.704e-6
1.213,   4.712e-6
1.214,   4.724e-6
1.215,   4.707e-6
1.216,   4.727e-6
1.217,   4.748e-6
1.218,   4.731e-6
1.219,   4.754e-6
1.220,   4.734e-6
1.221,   4.746e-6
1.222,   4.776e-6
1.223,   4.744e-6
1.224,   4.757e-6
1.225,   4.786e-6
1.226,   4.789e-6
1.227,   4.792e-6
1.228,   4.827e-6
1.229,   4.786e-6
1.230,   4.836e-6
1.231,   4.809e-6
1.232,   4.806e-6
1.233,   4.829e-6
1.234,   4.830e-6
1.235,   4.849e-6
1.236,   4.834e-6
1.237,   4.819e-6
1.238,   4.838e-6
1.239,   4.838e-6
1.240,   4.849e-6
1.241,   4.849e-6
1.242,   4.842e-6
1.243,   4.861e-6
1.244,   4.869e-6
1.245,   4.839e-6
1.246,   4.883e-6
1.247,   4.893e-6
1.248,   4.866e-6
1.249,   4.901e-6
1.250,   4.885e-6
1.251,   4.891e-6
1.252,   4.888e-6
1.253,   4.873e-6
1.254,   4.908e-6
1.255,   4.891e-6
1.256,   4.884e-6
1.257,   4.915e-6
1.258,   4.873e-6
1.259,   4.906e-6
1.260,   4.903e-6
1.261,   4.895e-6
1.262,   4.915e-6
1.263,   4.897e-6
1.264,   4.915e-6
1.265,   4.888e-6
1.266,   4.907e-6
1.267,   4.935e-6
1.268,   4.917e-6
1.269,   4.914e-6
1.270,   4.923e-6
1.271,   4.934e-6
1.272,   4.937e-6
1.273,   4.906e-6
1.274,   4.890e-6
1.275,   4.923e-6
1.276,   4.919e-6
1.277,   4.943e-6
1.278,   4.936e-6
1.279,   4.944e-6
1.280,   4.930e-6
1.281,   4.941e-6
1.282,   4.924e-6
1.283,   4.941e-6
1.284,   4.941e-6
1.285,   4.944e-6
1.286,   4.957e-6
1.287,   4.960e-6
1.288,   4.961e-6
1.289,   4.966e-6
1.290,   4.939e-6
1.291,   4.948e-6
1.292,   4.956e-6
1.293,   4.928e-6
1.294,   4.971e-6
1.295,   4.959e-6
1.296,   4.971e-6
1.297,   4.992e-6
1.298,   4.981e-6
1.299,   4.983e-6
1.300,   4.996e-6
1.301,   4.985e-6
1.302,   4.998e-6
1.303,   4.977e-6
1.304,   5.013e-6
1.305,   5.018e-6
1.306,   5.009e-6
1.307,   5.029e-6
1.308,   5.055e-6
1.309,   5.045e-6
1.310,   5.063e-6
1.311,   5.091e-6
1.312,   5.060e-6
1.313,   5.072e-6
1.314,   5.054e-6
1.315,   5.061e-6
1.316,   5.087e-6
1.317,   5.100e-6
1.318,   5.139e-6
1.319,   5.136e-6
1.320,   5.147e-6
1.321,   5.177e-6
1.322,   5.144e-6
1.323,   5.195e-6
1.324,   5.184e-6
1.325,   5.159e-6
1.326,   5.210e-6
1.327,   5.185e-6
1.328,   5.236e-6
1.329,   5.258e-6
1.330,   5.254e-6
1.331,   5.272e-6
1.332,   5.286e-6
1.333,   5.303e-6
1.334,   5.290e-6
1.335,   5.323e-6
1.336,   5.367e-6
1.337,   5.371e-6
1.338,   5.377e-6
1.339,   5.398e-6
1.340,   5.386e-6
1.341,   5.420e-6
1.342,   5.444e-6
1.343,   5.442e-6
1.344,   5.471e-6
1.345,   5.486e-6
1.346,   5.489e-6
1.347,   5.532e-6
1.348,   5.563e-6
1.349,   5.612e-6
1.350,   5.610e-6
1.351,   5.612e-6
1.352,   5.655e-6
1.353,   5.686e-6
1.354,   5.654e-6
1.355,   5.706e-6
1.356,   5.728e-6
1.357,   5.729e-6
1.358,   5.795e-6
1.359,   5.792e-6
1.360,   5.808e-6
1.361,   5.857e-6
1.362,   5.856e-6
1.363,   5.906e-6
1.364,   5.939e-6
1.365,   5.964e-6
1.366,   6.008e-6
1.367,   5.997e-6
1.368,   6.031e-6
1.369,   6.076e-6
1.370,   6.094e-6
1.371,   6.101e-6
1.372,   6.143e-6
1.373,   6.158e-6
1.374,   6.202e-6
1.375,   6.255e-6
1.376,   6.251e-6
1.377,   6.296e-6
1.378,   6.348e-6
1.379,   6.372e-6
1.380,   6.400e-6
1.381,   6.450e-6
1.382,   6.486e-6
1.383,   6.502e-6
1.384,   6.522e-6
1.385,   6.618e-6
1.386,   6.619e-6
1.387,   6.679e-6
1.388,   6.714e-6
1.389,   6.754e-6
1.390,   6.854e-6
1.391,   6.866e-6
1.392,   6.910e-6
1.393,   7.016e-6
1.394,   7.022e-6
1.395,   7.103e-6
1.396,   7.159e-6
1.397,   7.190e-6
1.398,   7.272e-6
1.399,   7.329e-6
1.400,   7.428e-6
1.401,   7.486e-6
1.402,   7.554e-6
1.403,   7.640e-6
1.404,   7.722e-6
1.405,   7.792e-6
1.406,   7.903e-6
1.407,   7.976e-6
1.408,   8.088e-6
1.409,   8.195e-6
1.410,   8.274e-6
1.411,   8.423e-6
1.412,   8.488e-6
1.413,   8.666e-6
1.414,   8.793e-6
1.415,   8.903e-6
1.416,   9.041e-6
1.417,   9.242e-6
1.418,   9.381e-6
1.419,   9.539e-6
1.420,   9.735e-6
1.421,   9.915e-6
1.422,   1.014e-5
1.423,   1.028e-5
1.424,   1.049e-5
1.425,   1.074e-5
1.426,   1.098e-5
1.427,   1.118e-5
1.428,   1.145e-5
1.429,   1.172e-5
1.430,   1.208e-5
1.431,   1.233e-5
1.432,   1.269e-5
1.433,   1.304e-5
1.434,   1.336e-5
1.435,   1.376e-5
1.436,   1.412e-5
1.437,   1.451e-5
1.438,   1.499e-5
1.439,   1.545e-5
1.440,   1.592e-5
1.441,   1.648e-5
1.442,   1.697e-5
1.443,   1.755e-5
1.444,   1.816e-5
1.445,   1.872e-5
1.446,   1.943e-5
1.447,   2.013e-5
1.448,   2.090e-5
1.449,   2.168e-5
1.450,   2.247e-5
1.451,   2.339e-5
1.452,   2.435e-5
1.453,   2.527e-5
1.454,   2.633e-5
1.455,   2.736e-5
1.456,   2.850e-5
1.457,   2.971e-5
1.458,   3.096e-5
1.459,   3.232e-5
1.460,   3.374e-5
1.461,   3.523e-5
1.462,   3.684e-5
1.463,   3.834e-5
1.464,   4.014e-5
1.465,   4.198e-5
1.466,   4.386e-5
1.467,   4.593e-5
1.468,   4.808e-5
1.469,   5.037e-5
1.470,   5.280e-5
1.471,   5.526e-5
1.472,   5.794e-5
1.473,   6.077e-5
1.474,   6.368e-5
1.475,   6.683e-5
1.476,   7.008e-5
1.477,   7.355e-5
1.478,   7.729e-5
1.479,   8.107e-5
1.480,   8.506e-5
1.481,   8.936e-5
1.482,   9.371e-5
1.483,   9.837e-5
1.484,   1.033e-4
1.485,   1.084e-4
1.486,   1.138e-4
1.487,   1.195e-4
1.488,   1.254e-4
1.489,   1.317e-4
1.490,   1.383e-4
1.491,   1.452e-4
1.492,   1.524e-4
1.493,   1.601e-4
1.494,   1.680e-4
1.495,   1.763e-4
1.496,   1.849e-4
1.497,   1.940e-4
1.498,   2.034e-4
1.499,   2.133e-4
1.500,   2.238e-4
1.501,   2.347e-4
1.502,   2.460e-4
1.503,   2.580e-4
1.504,   2.703e-4
1.505,   2.832e-4
1.506,   2.966e-4
1.507,   3.106e-4
1.508,   3.252e-4
1.509,   3.403e-4
1.510,   3.559e-4
1.511,   3.720e-4
1.512,   3.886e-4
1.513,   4.060e-4
1.514,   4.239e-4
1.515,   4.423e-4
1.516,   4.611e-4
1.517,   4.810e-4
1.518,   5.011e-4
1.519,   5.217e-4
1.520,   5.431e-4
1.521,   5.645e-4
1.522,   5.871e-4
1.523,   6.102e-4
1.524,   6.336e-4
1.525,   6.584e-4
1.526,   6.826e-4
1.527,   7.072e-4
1.528,   7.331e-4
1.529,   7.589e-4
1.530,   7.853e-4
1.531,   8.130e-4
1.532,   8.414e-4
1.533,   8.700e-4
1.534,   8.986e-4
1.535,   9.267e-4
1.536,   9.570e-4
1.537,   9.868e-4
1.538,   1.017e-3
1.539,   1.048e-3
1.540,   1.079e-3
1.541,   1.111e-3
1.542,   1.146e-3
1.543,   1.178e-3
1.544,   1.212e-3
1.545,   1.246e-3
1.546,   1.279e-3
1.547,   1.315e-3
1.548,   1.349e-3
1.549,   1.385e-3
1.550,   1.422e-3
1.551,   1.459e-3
1.552,   1.498e-3
1.553,   1.537e-3
1.554,   1.575e-3
1.555,   1.621e-3
1.556,   1.663e-3
1.557,   1.702e-3
1.558,   1.748e-3
1.559,   1.789e-3
1.560,   1.835e-3
1.561,   1.884e-3
1.562,   1.928e-3
1.563,   1.979e-3
1.564,   2.027e-3
1.565,   2.078e-3
1.566,   2.140e-3
1.567,   2.191e-3
1.568,   2.247e-3
1.569,   2.300e-3
1.570,   2.354e-3
1.571,   2.413e-3
1.572,   2.471e-3
1.573,   2.544e-3
1.574,   2.600e-3
1.575,   2.662e-3
1.576,   2.723e-3
1.577,   2.798e-3
1.578,   2.874e-3
1.579,   2.951e-3
1.580,   3.022e-3
1.581,   3.104e-3
1.582,   3.183e-3
1.583,   3.252e-3
1.584,   3.339e-3
1.585,   3.410e-3
1.586,   3.484e-3
1.587,   3.553e-3
1.588,   3.632e-3
1.589,   3.721e-3
1.590,   3.798e-3
1.591,   3.901e-3
1.592,   4.009e-3
1.593,   4.097e-3
1.594,   4.179e-3
1.595,   4.250e-3
1.596,   4.340e-3
1.597,   4.463e-3
1.598,   4.570e-3
1.599,   4.635e-3
1.600,   4.693e-3
1.601,   4.765e-3
1.602,   4.849e-3
1.603,   4.925e-3
1.604,   5.042e-3
1.605,   5.124e-3
1.606,   5.195e-3
1.607,   5.252e-3
1.608,   5.307e-3
1.609,   5.486e-3
1.610,   5.570e-3