File: Experimental Records and Raw Data/batch4/final400/B4_VARIANCE_400_#7_High_Quality(#31)-302mV.txt
Mar. 27, 2023   19:09:06
Linear Sweep Voltammetry
File: d:\current work\al_oer\electrochemical test data\batch 4\400\B4_VARIANCE_400_#7_High_Quality(#31)-302mV.txt
Data Source:  Experiment
Instrument Model:  CHI660E
Header:
Note:

Init E (V) = 1.123

Final E (V) = 1.622

Scan Rate (V/s) = 0.010
Sample Interval (V) = 0.001
Quiet Time (sec) = 2
Sensitivity (A/V) = 0.001
Comp R (ohm) = 6.6

Results:

Channel 1:

Potential/V, Current/A
1.123,   -5.468e-6
1.124,   -2.817e-6
1.125,   -1.501e-6
1.126,   -9.420e-7
1.127,   -4.561e-8
1.128,   6.432e-7
1.129,   9.373e-7
1.130,   1.437e-6
1.131,   1.926e-6
1.132,   2.239e-6
1.133,   2.509e-6
1.134,   2.714e-6
1.135,   2.902e-6
1.136,   3.064e-6
1.137,   3.226e-6
1.138,   3.481e-6
1.139,   3.697e-6
1.140,   3.914e-6
1.141,   4.088e-6
1.142,   4.212e-6
1.143,   4.368e-6
1.144,   4.484e-6
1.145,   4.526e-6
1.146,   4.671e-6
1.147,   4.798e-6
1.148,   4.891e-6
1.149,   4.999e-6
1.150,   5.064e-6
1.151,   5.159e-6
1.152,   5.261e-6
1.153,   5.323e-6
1.154,   5.437e-6
1.155,   5.499e-6
1.156,   5.536e-6
1.157,   5.643e-6
1.158,   5.674e-6
1.159,   5.790e-6
1.160,   5.830e-6
1.161,   5.898e-6
1.162,   5.988e-6
1.163,   6.034e-6
1.164,   6.083e-6
1.165,   6.185e-6
1.166,   6.211e-6
1.167,   6.284e-6
1.168,   6.316e-6
1.169,   6.404e-6
1.170,   6.440e-6
1.171,   6.482e-6
1.172,   6.522e-6
1.173,   6.604e-6
1.174,   6.608e-6
1.175,   6.689e-6
1.176,   6.759e-6
1.177,   6.794e-6
1.178,   6.851e-6
1.179,   6.873e-6
1.180,   6.924e-6
1.181,   7.021e-6
1.182,   7.024e-6
1.183,   7.104e-6
1.184,   7.175e-6
1.185,   7.172e-6
1.186,   7.266e-6
1.187,   7.260e-6
1.188,   7.345e-6
1.189,   7.443e-6
1.190,   7.444e-6
1.191,   7.532e-6
1.192,   7.564e-6
1.193,   7.579e-6
1.194,   7.654e-6
1.195,   7.705e-6
1.196,   7.728e-6
1.197,   7.775e-6
1.198,   7.797e-6
1.199,   7.886e-6
1.200,   7.944e-6
1.201,   7.974e-6
1.202,   8.040e-6
1.203,   8.039e-6
1.204,   8.109e-6
1.205,   8.192e-6
1.206,   8.176e-6
1.207,   8.259e-6
1.208,   8.305e-6
1.209,   8.356e-6
1.210,   8.407e-6
1.211,   8.418e-6
1.212,   8.451e-6
1.213,   8.518e-6
1.214,   8.532e-6
1.215,   8.589e-6
1.216,   8.635e-6
1.217,   8.741e-6
1.218,   8.758e-6
1.219,   8.758e-6
1.220,   8.767e-6
1.221,   8.811e-6
1.222,   8.840e-6
1.223,   8.906e-6
1.224,   8.956e-6
1.225,   8.991e-6
1.226,   9.024e-6
1.227,   9.035e-6
1.228,   9.115e-6
1.229,   9.155e-6
1.230,   9.176e-6
1.231,   9.285e-6
1.232,   9.289e-6
1.233,   9.364e-6
1.234,   9.410e-6
1.235,   9.359e-6
1.236,   9.362e-6
1.237,   9.395e-6
1.238,   9.431e-6
1.239,   9.507e-6
1.240,   9.564e-6
1.241,   9.556e-6
1.242,   9.651e-6
1.243,   9.614e-6
1.244,   9.686e-6
1.245,   9.740e-6
1.246,   9.716e-6
1.247,   9.792e-6
1.248,   1.004e-5
1.249,   9.907e-6
1.250,   9.868e-6
1.251,   9.879e-6
1.252,   9.956e-6
1.253,   9.998e-6
1.254,   9.943e-6
1.255,   9.984e-6
1.256,   1.002e-5
1.257,   1.003e-5
1.258,   1.007e-5
1.259,   1.009e-5
1.260,   1.012e-5
1.261,   1.014e-5
1.262,   1.010e-5
1.263,   1.016e-5
1.264,   1.018e-5
1.265,   1.016e-5
1.266,   1.022e-5
1.267,   1.017e-5
1.268,   1.020e-5
1.269,   1.025e-5
1.270,   1.019e-5
1.271,   1.021e-5
1.272,   1.018e-5
1.273,   1.020e-5
1.274,   1.024e-5
1.275,   1.023e-5
1.276,   1.008e-5
1.277,   1.017e-5
1.278,   1.026e-5
1.279,   1.033e-5
1.280,   1.037e-5
1.281,   1.039e-5
1.282,   1.041e-5
1.283,   1.036e-5
1.284,   1.046e-5
1.285,   1.049e-5
1.286,   1.045e-5
1.287,   1.052e-5
1.288,   1.050e-5
1.289,   1.045e-5
1.290,   1.052e-5
1.291,   1.052e-5
1.292,   1.052e-5
1.293,   1.052e-5
1.294,   1.056e-5
1.295,   1.055e-5
1.296,   1.054e-5
1.297,   1.056e-5
1.298,   1.060e-5
1.299,   1.055e-5
1.300,   1.062e-5
1.301,   1.063e-5
1.302,   1.059e-5
1.303,   1.063e-5
1.304,   1.060e-5
1.305,   1.058e-5
1.306,   1.064e-5
1.307,   1.062e-5
1.308,   1.063e-5
1.309,   1.064e-5
1.310,   1.063e-5
1.311,   1.070e-5
1.312,   1.066e-5
1.313,   1.066e-5
1.314,   1.071e-5
1.315,   1.068e-5
1.316,   1.071e-5
1.317,   1.075e-5
1.318,   1.069e-5
1.319,   1.072e-5
1.320,   1.075e-5
1.321,   1.075e-5
1.322,   1.081e-5
1.323,   1.079e-5
1.324,   1.083e-5
1.325,   1.086e-5
1.326,   1.081e-5
1.327,   1.083e-5
1.328,   1.083e-5
1.329,   1.088e-5
1.330,   1.093e-5
1.331,   1.089e-5
1.332,   1.098e-5
1.333,   1.101e-5
1.334,   1.094e-5
1.335,   1.102e-5
1.336,   1.108e-5
1.337,   1.105e-5
1.338,   1.109e-5
1.339,   1.106e-5
1.340,   1.111e-5
1.341,   1.116e-5
1.342,   1.114e-5
1.343,   1.117e-5
1.344,   1.121e-5
1.345,   1.125e-5
1.346,   1.128e-5
1.347,   1.127e-5
1.348,   1.140e-5
1.349,   1.140e-5
1.350,   1.137e-5
1.351,   1.140e-5
1.352,   1.145e-5
1.353,   1.151e-5
1.354,   1.158e-5
1.355,   1.159e-5
1.356,   1.164e-5
1.357,   1.168e-5
1.358,   1.165e-5
1.359,   1.175e-5
1.360,   1.180e-5
1.361,   1.191e-5
1.362,   1.193e-5
1.363,   1.197e-5
1.364,   1.201e-5
1.365,   1.214e-5
1.366,   1.213e-5
1.367,   1.218e-5
1.368,   1.220e-5
1.369,   1.214e-5
1.370,   1.225e-5
1.371,   1.237e-5
1.372,   1.254e-5
1.373,   1.291e-5
1.374,   1.288e-5
1.375,   1.274e-5
1.376,   1.274e-5
1.377,   1.285e-5
1.378,   1.324e-5
1.379,   1.313e-5
1.380,   1.313e-5
1.381,   1.326e-5
1.382,   1.334e-5
1.383,   1.345e-5
1.384,   1.359e-5
1.385,   1.368e-5
1.386,   1.388e-5
1.387,   1.402e-5
1.388,   1.413e-5
1.389,   1.432e-5
1.390,   1.441e-5
1.391,   1.463e-5
1.392,   1.477e-5
1.393,   1.496e-5
1.394,   1.527e-5
1.395,   1.565e-5
1.396,   1.608e-5
1.397,   1.609e-5
1.398,   1.607e-5
1.399,   1.633e-5
1.400,   1.660e-5
1.401,   1.681e-5
1.402,   1.712e-5
1.403,   1.742e-5
1.404,   1.773e-5
1.405,   1.814e-5
1.406,   1.849e-5
1.407,   1.886e-5
1.408,   1.933e-5
1.409,   1.972e-5
1.410,   2.022e-5
1.411,   2.069e-5
1.412,   2.119e-5
1.413,   2.173e-5
1.414,   2.216e-5
1.415,   2.289e-5
1.416,   2.347e-5
1.417,   2.415e-5
1.418,   2.499e-5
1.419,   2.560e-5
1.420,   2.635e-5
1.421,   2.718e-5
1.422,   2.800e-5
1.423,   2.897e-5
1.424,   2.993e-5
1.425,   3.095e-5
1.426,   3.210e-5
1.427,   3.313e-5
1.428,   3.441e-5
1.429,   3.566e-5
1.430,   3.684e-5
1.431,   3.826e-5
1.432,   3.976e-5
1.433,   4.149e-5
1.434,   4.341e-5
1.435,   4.506e-5
1.436,   4.679e-5
1.437,   4.861e-5
1.438,   5.052e-5
1.439,   5.270e-5
1.440,   5.483e-5
1.441,   5.714e-5
1.442,   6.011e-5
1.443,   6.274e-5
1.444,   6.512e-5
1.445,   6.789e-5
1.446,   7.092e-5
1.447,   7.419e-5
1.448,   7.731e-5
1.449,   8.075e-5
1.450,   8.463e-5
1.451,   8.843e-5
1.452,   9.248e-5
1.453,   9.648e-5
1.454,   1.007e-4
1.455,   1.053e-4
1.456,   1.101e-4
1.457,   1.153e-4
1.458,   1.205e-4
1.459,   1.256e-4
1.460,   1.315e-4
1.461,   1.373e-4
1.462,   1.435e-4
1.463,   1.499e-4
1.464,   1.569e-4
1.465,   1.639e-4
1.466,   1.714e-4
1.467,   1.786e-4
1.468,   1.864e-4
1.469,   1.947e-4
1.470,   2.031e-4
1.471,   2.123e-4
1.472,   2.217e-4
1.473,   2.311e-4
1.474,   2.414e-4
1.475,   2.521e-4
1.476,   2.628e-4
1.477,   2.738e-4
1.478,   2.856e-4
1.479,   2.977e-4
1.480,   3.101e-4
1.481,   3.227e-4
1.482,   3.360e-4
1.483,   3.502e-4
1.484,   3.650e-4
1.485,   3.802e-4
1.486,   3.955e-4
1.487,   4.117e-4
1.488,   4.285e-4
1.489,   4.458e-4
1.490,   4.642e-4
1.491,   4.841e-4
1.492,   5.028e-4
1.493,   5.221e-4
1.494,   5.437e-4
1.495,   5.638e-4
1.496,   5.843e-4
1.497,   6.057e-4
1.498,   6.282e-4
1.499,   6.528e-4
1.500,   6.769e-4
1.501,   7.024e-4
1.502,   7.293e-4
1.503,   7.563e-4
1.504,   7.836e-4
1.505,   8.111e-4
1.506,   8.399e-4
1.507,   8.717e-4
1.508,   9.027e-4
1.509,   9.338e-4
1.510,   9.673e-4
1.511,   1.002e-3
1.512,   1.037e-3
1.513,   1.073e-3
1.514,   1.112e-3
1.515,   1.149e-3
1.516,   1.186e-3
1.517,   1.225e-3
1.518,   1.265e-3
1.519,   1.305e-3
1.520,   1.346e-3
1.521,   1.390e-3
1.522,   1.434e-3
1.523,   1.477e-3
1.524,   1.521e-3
1.525,   1.570e-3
1.526,   1.619e-3
1.527,   1.669e-3
1.528,   1.718e-3
1.529,   1.766e-3
1.530,   1.818e-3
1.531,   1.869e-3
1.532,   1.919e-3
1.533,   1.972e-3
1.534,   2.023e-3
1.535,   2.078e-3
1.536,   2.131e-3
1.537,   2.208e-3
1.538,   2.272e-3
1.539,   2.329e-3
1.540,   2.385e-3
1.541,   2.442e-3
1.542,   2.504e-3
1.543,   2.568e-3
1.544,   2.622e-3
1.545,   2.679e-3
1.546,   2.743e-3
1.547,   2.798e-3
1.548,   2.862e-3
1.549,   2.971e-3
1.550,   3.046e-3
1.551,   3.103e-3
1.552,   3.157e-3
1.553,   3.214e-3
1.554,   3.274e-3
1.555,   3.373e-3
1.556,   3.496e-3
1.557,   3.559e-3
1.558,   3.638e-3
1.559,   3.693e-3
1.560,   3.738e-3
1.561,   3.805e-3
1.562,   3.873e-3
1.563,   3.945e-3
1.564,   3.998e-3
1.565,   4.045e-3
1.566,   4.107e-3
1.567,   4.174e-3
1.568,   4.315e-3
1.569,   4.433e-3
1.570,   4.494e-3
1.571,   4.574e-3
1.572,   4.650e-3
1.573,   4.703e-3
1.574,   4.743e-3
1.575,   4.892e-3
1.576,   5.056e-3
1.577,   5.102e-3
1.578,   5.133e-3
1.579,   5.171e-3
1.580,   5.222e-3
1.581,   5.410e-3
1.582,   5.601e-3
1.583,   5.710e-3
1.584,   5.777e-3
1.585,   5.820e-3
1.586,   5.859e-3
1.587,   5.874e-3
1.588,   5.949e-3
1.589,   6.041e-3
1.590,   6.107e-3
1.591,   6.139e-3
1.592,   6.227e-3
1.593,   6.262e-3
1.594,   6.351e-3
1.595,   6.620e-3
1.596,   6.722e-3
1.597,   6.787e-3
1.598,   6.825e-3
1.599,   6.859e-3
1.600,   6.922e-3
1.601,   7.000e-3
1.602,   7.238e-3
1.603,   7.345e-3
1.604,   7.352e-3
1.605,   7.372e-3
1.606,   7.501e-3
1.607,   7.688e-3
1.608,   7.891e-3
1.609,   7.871e-3
1.610,   7.852e-3
1.611,   7.828e-3
1.612,   7.855e-3
1.613,   8.204e-3
1.614,   8.545e-3
1.615,   8.552e-3
1.616,   8.553e-3
1.617,   8.791e-3
1.618,   8.817e-3
1.619,   8.990e-3
1.620,   8.978e-3
1.621,   8.908e-3
1.622,   9.139e-3