File: Experimental Records and Raw Data/batch4/final400/B4_VARIANCE_400_#5_High_Quality(#29)-273mV.txt
Mar. 24, 2023   18:41:00
Linear Sweep Voltammetry
File: d:\current work\al_oer\electrochemical test data\batch 4\400\B4_VARIANCE_400_#5_High_Quality(#29)-273mV.txt
Data Source:  Experiment
Instrument Model:  CHI660E
Header:
Note:

Init E (V) = 1.100

Final E (V) = 1.599

Scan Rate (V/s) = 0.010
Sample Interval (V) = 0.001
Quiet Time (sec) = 2
Sensitivity (A/V) = 0.001
Comp R (ohm) = 7.5

Results:

Channel 1:

Potential/V, Current/A
1.100,   1.937e-5
1.101,   2.053e-5
1.102,   1.970e-5
1.103,   1.890e-5
1.104,   1.827e-5
1.105,   1.764e-5
1.106,   1.712e-5
1.107,   1.659e-5
1.108,   1.617e-5
1.109,   1.574e-5
1.110,   1.541e-5
1.111,   1.507e-5
1.112,   1.476e-5
1.113,   1.448e-5
1.114,   1.421e-5
1.115,   1.405e-5
1.116,   1.376e-5
1.117,   1.358e-5
1.118,   1.337e-5
1.119,   1.318e-5
1.120,   1.306e-5
1.121,   1.292e-5
1.122,   1.270e-5
1.123,   1.260e-5
1.124,   1.243e-5
1.125,   1.229e-5
1.126,   1.220e-5
1.127,   1.208e-5
1.128,   1.203e-5
1.129,   1.192e-5
1.130,   1.181e-5
1.131,   1.175e-5
1.132,   1.164e-5
1.133,   1.158e-5
1.134,   1.153e-5
1.135,   1.141e-5
1.136,   1.136e-5
1.137,   1.128e-5
1.138,   1.121e-5
1.139,   1.120e-5
1.140,   1.111e-5
1.141,   1.104e-5
1.142,   1.105e-5
1.143,   1.097e-5
1.144,   1.093e-5
1.145,   1.091e-5
1.146,   1.089e-5
1.147,   1.086e-5
1.148,   1.079e-5
1.149,   1.078e-5
1.150,   1.079e-5
1.151,   1.074e-5
1.152,   1.075e-5
1.153,   1.077e-5
1.154,   1.068e-5
1.155,   1.069e-5
1.156,   1.064e-5
1.157,   1.063e-5
1.158,   1.066e-5
1.159,   1.063e-5
1.160,   1.063e-5
1.161,   1.062e-5
1.162,   1.058e-5
1.163,   1.060e-5
1.164,   1.056e-5
1.165,   1.057e-5
1.166,   1.061e-5
1.167,   1.059e-5
1.168,   1.060e-5
1.169,   1.061e-5
1.170,   1.061e-5
1.171,   1.065e-5
1.172,   1.063e-5
1.173,   1.064e-5
1.174,   1.065e-5
1.175,   1.063e-5
1.176,   1.070e-5
1.177,   1.064e-5
1.178,   1.065e-5
1.179,   1.073e-5
1.180,   1.072e-5
1.181,   1.071e-5
1.182,   1.077e-5
1.183,   1.074e-5
1.184,   1.078e-5
1.185,   1.079e-5
1.186,   1.081e-5
1.187,   1.081e-5
1.188,   1.080e-5
1.189,   1.082e-5
1.190,   1.087e-5
1.191,   1.085e-5
1.192,   1.091e-5
1.193,   1.090e-5
1.194,   1.090e-5
1.195,   1.099e-5
1.196,   1.095e-5
1.197,   1.100e-5
1.198,   1.104e-5
1.199,   1.101e-5
1.200,   1.107e-5
1.201,   1.110e-5
1.202,   1.106e-5
1.203,   1.110e-5
1.204,   1.111e-5
1.205,   1.111e-5
1.206,   1.118e-5
1.207,   1.116e-5
1.208,   1.117e-5
1.209,   1.122e-5
1.210,   1.124e-5
1.211,   1.128e-5
1.212,   1.125e-5
1.213,   1.129e-5
1.214,   1.129e-5
1.215,   1.128e-5
1.216,   1.132e-5
1.217,   1.134e-5
1.218,   1.132e-5
1.219,   1.139e-5
1.220,   1.138e-5
1.221,   1.141e-5
1.222,   1.145e-5
1.223,   1.141e-5
1.224,   1.143e-5
1.225,   1.144e-5
1.226,   1.139e-5
1.227,   1.143e-5
1.228,   1.138e-5
1.229,   1.146e-5
1.230,   1.148e-5
1.231,   1.143e-5
1.232,   1.147e-5
1.233,   1.152e-5
1.234,   1.150e-5
1.235,   1.151e-5
1.236,   1.148e-5
1.237,   1.145e-5
1.238,   1.154e-5
1.239,   1.152e-5
1.240,   1.150e-5
1.241,   1.152e-5
1.242,   1.157e-5
1.243,   1.155e-5
1.244,   1.150e-5
1.245,   1.151e-5
1.246,   1.153e-5
1.247,   1.148e-5
1.248,   1.151e-5
1.249,   1.152e-5
1.250,   1.147e-5
1.251,   1.154e-5
1.252,   1.149e-5
1.253,   1.150e-5
1.254,   1.152e-5
1.255,   1.148e-5
1.256,   1.150e-5
1.257,   1.147e-5
1.258,   1.147e-5
1.259,   1.150e-5
1.260,   1.143e-5
1.261,   1.148e-5
1.262,   1.150e-5
1.263,   1.141e-5
1.264,   1.145e-5
1.265,   1.143e-5
1.266,   1.138e-5
1.267,   1.145e-5
1.268,   1.146e-5
1.269,   1.139e-5
1.270,   1.144e-5
1.271,   1.134e-5
1.272,   1.138e-5
1.273,   1.137e-5
1.274,   1.135e-5
1.275,   1.134e-5
1.276,   1.131e-5
1.277,   1.133e-5
1.278,   1.136e-5
1.279,   1.128e-5
1.280,   1.133e-5
1.281,   1.131e-5
1.282,   1.124e-5
1.283,   1.130e-5
1.284,   1.127e-5
1.285,   1.125e-5
1.286,   1.126e-5
1.287,   1.125e-5
1.288,   1.124e-5
1.289,   1.121e-5
1.290,   1.123e-5
1.291,   1.129e-5
1.292,   1.118e-5
1.293,   1.123e-5
1.294,   1.124e-5
1.295,   1.119e-5
1.296,   1.123e-5
1.297,   1.129e-5
1.298,   1.120e-5
1.299,   1.121e-5
1.300,   1.121e-5
1.301,   1.120e-5
1.302,   1.120e-5
1.303,   1.119e-5
1.304,   1.119e-5
1.305,   1.117e-5
1.306,   1.119e-5
1.307,   1.122e-5
1.308,   1.116e-5
1.309,   1.119e-5
1.310,   1.124e-5
1.311,   1.121e-5
1.312,   1.122e-5
1.313,   1.124e-5
1.314,   1.120e-5
1.315,   1.125e-5
1.316,   1.124e-5
1.317,   1.123e-5
1.318,   1.127e-5
1.319,   1.127e-5
1.320,   1.127e-5
1.321,   1.133e-5
1.322,   1.127e-5
1.323,   1.134e-5
1.324,   1.134e-5
1.325,   1.143e-5
1.326,   1.143e-5
1.327,   1.137e-5
1.328,   1.146e-5
1.329,   1.142e-5
1.330,   1.146e-5
1.331,   1.148e-5
1.332,   1.150e-5
1.333,   1.152e-5
1.334,   1.157e-5
1.335,   1.156e-5
1.336,   1.164e-5
1.337,   1.170e-5
1.338,   1.176e-5
1.339,   1.179e-5
1.340,   1.178e-5
1.341,   1.181e-5
1.342,   1.190e-5
1.343,   1.190e-5
1.344,   1.197e-5
1.345,   1.202e-5
1.346,   1.202e-5
1.347,   1.220e-5
1.348,   1.222e-5
1.349,   1.221e-5
1.350,   1.231e-5
1.351,   1.236e-5
1.352,   1.244e-5
1.353,   1.248e-5
1.354,   1.253e-5
1.355,   1.267e-5
1.356,   1.269e-5
1.357,   1.280e-5
1.358,   1.293e-5
1.359,   1.295e-5
1.360,   1.309e-5
1.361,   1.317e-5
1.362,   1.327e-5
1.363,   1.344e-5
1.364,   1.353e-5
1.365,   1.365e-5
1.366,   1.379e-5
1.367,   1.387e-5
1.368,   1.408e-5
1.369,   1.422e-5
1.370,   1.435e-5
1.371,   1.454e-5
1.372,   1.467e-5
1.373,   1.488e-5
1.374,   1.515e-5
1.375,   1.533e-5
1.376,   1.554e-5
1.377,   1.578e-5
1.378,   1.598e-5
1.379,   1.628e-5
1.380,   1.649e-5
1.381,   1.679e-5
1.382,   1.710e-5
1.383,   1.740e-5
1.384,   1.777e-5
1.385,   1.810e-5
1.386,   1.839e-5
1.387,   1.884e-5
1.388,   1.922e-5
1.389,   1.972e-5
1.390,   2.021e-5
1.391,   2.063e-5
1.392,   2.119e-5
1.393,   2.174e-5
1.394,   2.226e-5
1.395,   2.292e-5
1.396,   2.353e-5
1.397,   2.418e-5
1.398,   2.494e-5
1.399,   2.603e-5
1.400,   2.790e-5
1.401,   2.813e-5
1.402,   2.906e-5
1.403,   2.978e-5
1.404,   3.101e-5
1.405,   3.222e-5
1.406,   3.335e-5
1.407,   3.453e-5
1.408,   3.586e-5
1.409,   3.723e-5
1.410,   3.888e-5
1.411,   4.026e-5
1.412,   4.225e-5
1.413,   4.369e-5
1.414,   4.595e-5
1.415,   4.765e-5
1.416,   4.951e-5
1.417,   5.173e-5
1.418,   5.400e-5
1.419,   5.615e-5
1.420,   5.883e-5
1.421,   6.118e-5
1.422,   6.368e-5
1.423,   6.577e-5
1.424,   6.696e-5
1.425,   7.080e-5
1.426,   7.396e-5
1.427,   7.695e-5
1.428,   8.006e-5
1.429,   8.391e-5
1.430,   8.765e-5
1.431,   9.182e-5
1.432,   9.606e-5
1.433,   9.979e-5
1.434,   1.040e-4
1.435,   1.086e-4
1.436,   1.134e-4
1.437,   1.185e-4
1.438,   1.240e-4
1.439,   1.292e-4
1.440,   1.349e-4
1.441,   1.410e-4
1.442,   1.472e-4
1.443,   1.541e-4
1.444,   1.611e-4
1.445,   1.685e-4
1.446,   1.762e-4
1.447,   1.843e-4
1.448,   1.928e-4
1.449,   2.019e-4
1.450,   2.106e-4
1.451,   2.202e-4
1.452,   2.300e-4
1.453,   2.409e-4
1.454,   2.522e-4
1.455,   2.632e-4
1.456,   2.752e-4
1.457,   2.876e-4
1.458,   3.006e-4
1.459,   3.144e-4
1.460,   3.289e-4
1.461,   3.435e-4
1.462,   3.590e-4
1.463,   3.755e-4
1.464,   3.925e-4
1.465,   4.096e-4
1.466,   4.285e-4
1.467,   4.479e-4
1.468,   4.675e-4
1.469,   4.879e-4
1.470,   5.096e-4
1.471,   5.319e-4
1.472,   5.552e-4
1.473,   5.789e-4
1.474,   6.040e-4
1.475,   6.293e-4
1.476,   6.558e-4
1.477,   6.843e-4
1.478,   7.133e-4
1.479,   7.437e-4
1.480,   7.748e-4
1.481,   8.068e-4
1.482,   8.394e-4
1.483,   8.731e-4
1.484,   9.088e-4
1.485,   9.464e-4
1.486,   9.854e-4
1.487,   1.023e-3
1.488,   1.064e-3
1.489,   1.105e-3
1.490,   1.151e-3
1.491,   1.195e-3
1.492,   1.240e-3
1.493,   1.287e-3
1.494,   1.336e-3
1.495,   1.387e-3
1.496,   1.441e-3
1.497,   1.496e-3
1.498,   1.550e-3
1.499,   1.607e-3
1.500,   1.667e-3
1.501,   1.736e-3
1.502,   1.803e-3
1.503,   1.871e-3
1.504,   1.943e-3
1.505,   2.014e-3
1.506,   2.088e-3
1.507,   2.164e-3
1.508,   2.253e-3
1.509,   2.343e-3
1.510,   2.441e-3
1.511,   2.547e-3
1.512,   2.663e-3
1.513,   2.790e-3
1.514,   2.921e-3
1.515,   3.034e-3
1.516,   3.149e-3
1.517,   3.267e-3
1.518,   3.410e-3
1.519,   3.558e-3
1.520,   3.755e-3
1.521,   3.935e-3
1.522,   4.111e-3
1.523,   4.289e-3
1.524,   4.504e-3
1.525,   4.727e-3
1.526,   4.938e-3
1.527,   5.194e-3
1.528,   5.432e-3
1.529,   5.602e-3
1.530,   5.842e-3
1.531,   6.174e-3
1.532,   6.474e-3
1.533,   6.712e-3
1.534,   6.851e-3
1.535,   7.126e-3
1.536,   7.401e-3
1.537,   7.769e-3
1.538,   8.072e-3
1.539,   8.254e-3
1.540,   8.470e-3
1.541,   8.739e-3
1.542,   8.973e-3
1.543,   9.568e-3
1.544,   9.939e-3
1.545,   9.961e-3
1.546,   1.006e-2
1.547,   1.006e-2
1.548,   1.006e-2
1.549,   1.006e-2
1.550,   1.006e-2
1.551,   1.006e-2
1.552,   1.006e-2
1.553,   1.006e-2
1.554,   1.006e-2
1.555,   1.006e-2
1.556,   1.006e-2
1.557,   1.006e-2
1.558,   1.006e-2
1.559,   1.006e-2
1.560,   1.006e-2
1.561,   1.006e-2
1.562,   1.006e-2
1.563,   1.006e-2
1.564,   1.006e-2
1.565,   1.006e-2
1.566,   1.006e-2
1.567,   1.006e-2
1.568,   1.006e-2
1.569,   1.006e-2
1.570,   1.006e-2
1.571,   1.006e-2
1.572,   1.006e-2
1.573,   1.006e-2
1.574,   1.006e-2
1.575,   1.006e-2
1.576,   1.006e-2
1.577,   1.006e-2
1.578,   1.006e-2
1.579,   1.006e-2
1.580,   1.006e-2
1.581,   1.006e-2
1.582,   1.006e-2
1.583,   1.006e-2
1.584,   1.006e-2
1.585,   1.006e-2
1.586,   1.006e-2
1.587,   1.006e-2
1.588,   1.006e-2
1.589,   1.006e-2
1.590,   1.006e-2
1.591,   1.006e-2
1.592,   1.006e-2
1.593,   1.006e-2
1.594,   1.006e-2
1.595,   1.006e-2
1.596,   1.006e-2
1.597,   1.006e-2
1.598,   1.006e-2
1.599,   1.006e-2