File: Experimental Records and Raw Data/batch4/final400/B4_VARIANCE_400_#3_Full(#11)-391mV.txt
Mar. 27, 2023   15:09:03
Linear Sweep Voltammetry
File: d:\current work\al_oer\electrochemical test data\batch 4\400\B4_VARIANCE_400_#3_Full(#11)-391mV.txt
Data Source:  Experiment
Instrument Model:  CHI660E
Header:
Note:

Init E (V) = 1.109

Final E (V) = 1.638

Scan Rate (V/s) = 0.010
Sample Interval (V) = 0.001
Quiet Time (sec) = 2
Sensitivity (A/V) = 0.001
Comp R (ohm) = 4.7

Results:

Channel 1:

Potential/V, Current/A
1.109,   2.232e-4
1.110,   2.110e-4
1.111,   1.996e-4
1.112,   1.894e-4
1.113,   1.799e-4
1.114,   1.714e-4
1.115,   1.637e-4
1.116,   1.566e-4
1.117,   1.502e-4
1.118,   1.443e-4
1.119,   1.386e-4
1.120,   1.334e-4
1.121,   1.287e-4
1.122,   1.243e-4
1.123,   1.203e-4
1.124,   1.168e-4
1.125,   1.132e-4
1.126,   1.098e-4
1.127,   1.068e-4
1.128,   1.039e-4
1.129,   1.012e-4
1.130,   9.866e-5
1.131,   9.627e-5
1.132,   9.388e-5
1.133,   9.207e-5
1.134,   9.003e-5
1.135,   8.802e-5
1.136,   8.622e-5
1.137,   8.455e-5
1.138,   8.276e-5
1.139,   8.114e-5
1.140,   7.975e-5
1.141,   7.818e-5
1.142,   7.669e-5
1.143,   7.512e-5
1.144,   7.384e-5
1.145,   7.249e-5
1.146,   7.145e-5
1.147,   7.046e-5
1.148,   6.955e-5
1.149,   6.855e-5
1.150,   6.752e-5
1.151,   6.647e-5
1.152,   6.552e-5
1.153,   6.464e-5
1.154,   6.392e-5
1.155,   6.324e-5
1.156,   6.253e-5
1.157,   6.188e-5
1.158,   6.124e-5
1.159,   6.064e-5
1.160,   5.989e-5
1.161,   5.933e-5
1.162,   5.871e-5
1.163,   5.814e-5
1.164,   5.766e-5
1.165,   5.712e-5
1.166,   5.655e-5
1.167,   5.602e-5
1.168,   5.557e-5
1.169,   5.515e-5
1.170,   5.460e-5
1.171,   5.418e-5
1.172,   5.379e-5
1.173,   5.341e-5
1.174,   5.299e-5
1.175,   5.259e-5
1.176,   5.218e-5
1.177,   5.199e-5
1.178,   5.167e-5
1.179,   5.126e-5
1.180,   5.088e-5
1.181,   5.050e-5
1.182,   5.026e-5
1.183,   5.000e-5
1.184,   4.967e-5
1.185,   4.947e-5
1.186,   4.920e-5
1.187,   4.893e-5
1.188,   4.876e-5
1.189,   4.852e-5
1.190,   4.824e-5
1.191,   4.805e-5
1.192,   4.794e-5
1.193,   4.771e-5
1.194,   4.758e-5
1.195,   4.756e-5
1.196,   4.731e-5
1.197,   4.705e-5
1.198,   4.696e-5
1.199,   4.697e-5
1.200,   4.681e-5
1.201,   4.667e-5
1.202,   4.647e-5
1.203,   4.633e-5
1.204,   4.618e-5
1.205,   4.595e-5
1.206,   4.584e-5
1.207,   4.577e-5
1.208,   4.564e-5
1.209,   4.552e-5
1.210,   4.539e-5
1.211,   4.532e-5
1.212,   4.529e-5
1.213,   4.519e-5
1.214,   4.505e-5
1.215,   4.496e-5
1.216,   4.484e-5
1.217,   4.458e-5
1.218,   4.452e-5
1.219,   4.447e-5
1.220,   4.442e-5
1.221,   4.430e-5
1.222,   4.419e-5
1.223,   4.407e-5
1.224,   4.397e-5
1.225,   4.390e-5
1.226,   4.382e-5
1.227,   4.377e-5
1.228,   4.377e-5
1.229,   4.373e-5
1.230,   4.370e-5
1.231,   4.386e-5
1.232,   4.390e-5
1.233,   4.380e-5
1.234,   4.361e-5
1.235,   4.347e-5
1.236,   4.346e-5
1.237,   4.341e-5
1.238,   4.344e-5
1.239,   4.352e-5
1.240,   4.358e-5
1.241,   4.367e-5
1.242,   4.371e-5
1.243,   4.368e-5
1.244,   4.371e-5
1.245,   4.360e-5
1.246,   4.361e-5
1.247,   4.358e-5
1.248,   4.365e-5
1.249,   4.359e-5
1.250,   4.359e-5
1.251,   4.354e-5
1.252,   4.353e-5
1.253,   4.354e-5
1.254,   4.356e-5
1.255,   4.359e-5
1.256,   4.361e-5
1.257,   4.365e-5
1.258,   4.370e-5
1.259,   4.374e-5
1.260,   4.376e-5
1.261,   4.377e-5
1.262,   4.377e-5
1.263,   4.384e-5
1.264,   4.392e-5
1.265,   4.393e-5
1.266,   4.391e-5
1.267,   4.388e-5
1.268,   4.389e-5
1.269,   4.388e-5
1.270,   4.395e-5
1.271,   4.403e-5
1.272,   4.402e-5
1.273,   4.409e-5
1.274,   4.409e-5
1.275,   4.412e-5
1.276,   4.413e-5
1.277,   4.414e-5
1.278,   4.414e-5
1.279,   4.422e-5
1.280,   4.420e-5
1.281,   4.426e-5
1.282,   4.425e-5
1.283,   4.429e-5
1.284,   4.445e-5
1.285,   4.435e-5
1.286,   4.438e-5
1.287,   4.446e-5
1.288,   4.460e-5
1.289,   4.472e-5
1.290,   4.472e-5
1.291,   4.477e-5
1.292,   4.483e-5
1.293,   4.485e-5
1.294,   4.496e-5
1.295,   4.505e-5
1.296,   4.521e-5
1.297,   4.529e-5
1.298,   4.528e-5
1.299,   4.527e-5
1.300,   4.540e-5
1.301,   4.547e-5
1.302,   4.549e-5
1.303,   4.554e-5
1.304,   4.562e-5
1.305,   4.569e-5
1.306,   4.579e-5
1.307,   4.598e-5
1.308,   4.616e-5
1.309,   4.624e-5
1.310,   4.631e-5
1.311,   4.636e-5
1.312,   4.642e-5
1.313,   4.650e-5
1.314,   4.662e-5
1.315,   4.671e-5
1.316,   4.683e-5
1.317,   4.689e-5
1.318,   4.711e-5
1.319,   4.722e-5
1.320,   4.730e-5
1.321,   4.737e-5
1.322,   4.755e-5
1.323,   4.763e-5
1.324,   4.777e-5
1.325,   4.792e-5
1.326,   4.808e-5
1.327,   4.816e-5
1.328,   4.825e-5
1.329,   4.846e-5
1.330,   4.857e-5
1.331,   4.867e-5
1.332,   4.884e-5
1.333,   4.892e-5
1.334,   4.916e-5
1.335,   4.920e-5
1.336,   4.930e-5
1.337,   4.948e-5
1.338,   4.961e-5
1.339,   4.970e-5
1.340,   4.987e-5
1.341,   4.996e-5
1.342,   5.005e-5
1.343,   5.026e-5
1.344,   5.040e-5
1.345,   5.062e-5
1.346,   5.079e-5
1.347,   5.102e-5
1.348,   5.130e-5
1.349,   5.146e-5
1.350,   5.170e-5
1.351,   5.195e-5
1.352,   5.211e-5
1.353,   5.236e-5
1.354,   5.256e-5
1.355,   5.281e-5
1.356,   5.305e-5
1.357,   5.328e-5
1.358,   5.347e-5
1.359,   5.367e-5
1.360,   5.386e-5
1.361,   5.426e-5
1.362,   5.449e-5
1.363,   5.476e-5
1.364,   5.506e-5
1.365,   5.529e-5
1.366,   5.561e-5
1.367,   5.593e-5
1.368,   5.624e-5
1.369,   5.653e-5
1.370,   5.682e-5
1.371,   5.708e-5
1.372,   5.744e-5
1.373,   5.782e-5
1.374,   5.811e-5
1.375,   5.848e-5
1.376,   5.886e-5
1.377,   5.933e-5
1.378,   5.974e-5
1.379,   6.012e-5
1.380,   6.058e-5
1.381,   6.117e-5
1.382,   6.165e-5
1.383,   6.210e-5
1.384,   6.249e-5
1.385,   6.305e-5
1.386,   6.355e-5
1.387,   6.404e-5
1.388,   6.461e-5
1.389,   6.514e-5
1.390,   6.572e-5
1.391,   6.635e-5
1.392,   6.710e-5
1.393,   6.778e-5
1.394,   6.847e-5
1.395,   6.921e-5
1.396,   7.014e-5
1.397,   7.097e-5
1.398,   7.192e-5
1.399,   7.283e-5
1.400,   7.366e-5
1.401,   7.458e-5
1.402,   7.562e-5
1.403,   7.688e-5
1.404,   7.796e-5
1.405,   7.902e-5
1.406,   8.018e-5
1.407,   8.121e-5
1.408,   8.252e-5
1.409,   8.398e-5
1.410,   8.539e-5
1.411,   8.696e-5
1.412,   8.852e-5
1.413,   9.017e-5
1.414,   9.188e-5
1.415,   9.367e-5
1.416,   9.553e-5
1.417,   9.744e-5
1.418,   9.947e-5
1.419,   1.015e-4
1.420,   1.037e-4
1.421,   1.059e-4
1.422,   1.083e-4
1.423,   1.107e-4
1.424,   1.133e-4
1.425,   1.161e-4
1.426,   1.188e-4
1.427,   1.215e-4
1.428,   1.245e-4
1.429,   1.276e-4
1.430,   1.307e-4
1.431,   1.338e-4
1.432,   1.370e-4
1.433,   1.405e-4
1.434,   1.438e-4
1.435,   1.474e-4
1.436,   1.514e-4
1.437,   1.555e-4
1.438,   1.596e-4
1.439,   1.636e-4
1.440,   1.676e-4
1.441,   1.720e-4
1.442,   1.765e-4
1.443,   1.811e-4
1.444,   1.860e-4
1.445,   1.911e-4
1.446,   1.962e-4
1.447,   2.014e-4
1.448,   2.064e-4
1.449,   2.117e-4
1.450,   2.174e-4
1.451,   2.233e-4
1.452,   2.296e-4
1.453,   2.358e-4
1.454,   2.423e-4
1.455,   2.489e-4
1.456,   2.555e-4
1.457,   2.626e-4
1.458,   2.698e-4
1.459,   2.767e-4
1.460,   2.837e-4
1.461,   2.909e-4
1.462,   2.987e-4
1.463,   3.064e-4
1.464,   3.141e-4
1.465,   3.219e-4
1.466,   3.298e-4
1.467,   3.382e-4
1.468,   3.465e-4
1.469,   3.551e-4
1.470,   3.641e-4
1.471,   3.733e-4
1.472,   3.830e-4
1.473,   3.923e-4
1.474,   4.018e-4
1.475,   4.114e-4
1.476,   4.211e-4
1.477,   4.310e-4
1.478,   4.410e-4
1.479,   4.512e-4
1.480,   4.612e-4
1.481,   4.708e-4
1.482,   4.818e-4
1.483,   4.930e-4
1.484,   5.039e-4
1.485,   5.150e-4
1.486,   5.262e-4
1.487,   5.375e-4
1.488,   5.494e-4
1.489,   5.614e-4
1.490,   5.733e-4
1.491,   5.855e-4
1.492,   5.973e-4
1.493,   6.095e-4
1.494,   6.217e-4
1.495,   6.342e-4
1.496,   6.463e-4
1.497,   6.590e-4
1.498,   6.716e-4
1.499,   6.845e-4
1.500,   6.966e-4
1.501,   7.096e-4
1.502,   7.227e-4
1.503,   7.355e-4
1.504,   7.486e-4
1.505,   7.620e-4
1.506,   7.753e-4
1.507,   7.883e-4
1.508,   8.019e-4
1.509,   8.156e-4
1.510,   8.293e-4
1.511,   8.426e-4
1.512,   8.562e-4
1.513,   8.703e-4
1.514,   8.840e-4
1.515,   8.975e-4
1.516,   9.109e-4
1.517,   9.244e-4
1.518,   9.382e-4
1.519,   9.524e-4
1.520,   9.657e-4
1.521,   9.789e-4
1.522,   9.924e-4
1.523,   1.006e-3
1.524,   1.019e-3
1.525,   1.033e-3
1.526,   1.046e-3
1.527,   1.059e-3
1.528,   1.073e-3
1.529,   1.086e-3
1.530,   1.099e-3
1.531,   1.113e-3
1.532,   1.126e-3
1.533,   1.139e-3
1.534,   1.151e-3
1.535,   1.165e-3
1.536,   1.178e-3
1.537,   1.190e-3
1.538,   1.202e-3
1.539,   1.215e-3
1.540,   1.228e-3
1.541,   1.241e-3
1.542,   1.252e-3
1.543,   1.264e-3
1.544,   1.276e-3
1.545,   1.288e-3
1.546,   1.301e-3
1.547,   1.314e-3
1.548,   1.325e-3
1.549,   1.337e-3
1.550,   1.349e-3
1.551,   1.360e-3
1.552,   1.371e-3
1.553,   1.383e-3
1.554,   1.394e-3
1.555,   1.405e-3
1.556,   1.417e-3
1.557,   1.429e-3
1.558,   1.441e-3
1.559,   1.451e-3
1.560,   1.464e-3
1.561,   1.475e-3
1.562,   1.486e-3
1.563,   1.498e-3
1.564,   1.508e-3
1.565,   1.519e-3
1.566,   1.531e-3
1.567,   1.543e-3
1.568,   1.554e-3
1.569,   1.564e-3
1.570,   1.574e-3
1.571,   1.584e-3
1.572,   1.594e-3
1.573,   1.605e-3
1.574,   1.615e-3
1.575,   1.625e-3
1.576,   1.635e-3
1.577,   1.644e-3
1.578,   1.654e-3
1.579,   1.664e-3
1.580,   1.674e-3
1.581,   1.683e-3
1.582,   1.692e-3
1.583,   1.701e-3
1.584,   1.710e-3
1.585,   1.719e-3
1.586,   1.728e-3
1.587,   1.738e-3
1.588,   1.745e-3
1.589,   1.754e-3
1.590,   1.761e-3
1.591,   1.769e-3
1.592,   1.777e-3
1.593,   1.785e-3
1.594,   1.793e-3
1.595,   1.800e-3
1.596,   1.809e-3
1.597,   1.816e-3
1.598,   1.824e-3
1.599,   1.831e-3
1.600,   1.840e-3
1.601,   1.847e-3
1.602,   1.854e-3
1.603,   1.864e-3
1.604,   1.867e-3
1.605,   1.874e-3
1.606,   1.881e-3
1.607,   1.888e-3
1.608,   1.892e-3
1.609,   1.898e-3
1.610,   1.904e-3
1.611,   1.908e-3
1.612,   1.914e-3
1.613,   1.920e-3
1.614,   1.925e-3
1.615,   1.931e-3
1.616,   1.936e-3
1.617,   1.941e-3
1.618,   1.945e-3
1.619,   1.949e-3
1.620,   1.954e-3
1.621,   1.957e-3
1.622,   1.962e-3
1.623,   1.967e-3
1.624,   1.971e-3
1.625,   1.976e-3
1.626,   1.981e-3
1.627,   1.985e-3
1.628,   1.988e-3
1.629,   1.989e-3
1.630,   1.992e-3
1.631,   1.996e-3
1.632,   1.998e-3
1.633,   2.001e-3
1.634,   2.004e-3
1.635,   2.009e-3
1.636,   2.019e-3
1.637,   2.018e-3
1.638,   2.020e-3