File: Experimental Records and Raw Data/batch4/final400/B4_VARIANCE_400_#4_Full(#12)-402mV.txt
Mar. 26, 2023   16:00:46
Linear Sweep Voltammetry
File: d:\current work\al_oer\electrochemical test data\batch 4\400\B4_VARIANCE_400_#4_Full(#12)-402mV.txt
Data Source:  Experiment
Instrument Model:  CHI660E
Header:
Note:

Init E (V) = 1.070

Final E (V) = 1.669

Scan Rate (V/s) = 0.010
Sample Interval (V) = 0.001
Quiet Time (sec) = 2
Sensitivity (A/V) = 0.001
Comp R (ohm) = 5.0

Results:

Channel 1:

Potential/V, Current/A
1.070,   -3.318e-7
1.071,   2.351e-7
1.072,   3.853e-7
1.073,   5.001e-7
1.074,   5.937e-7
1.075,   6.826e-7
1.076,   7.360e-7
1.077,   7.785e-7
1.078,   8.343e-7
1.079,   8.839e-7
1.080,   9.295e-7
1.081,   9.452e-7
1.082,   9.892e-7
1.083,   1.040e-6
1.084,   1.056e-6
1.085,   1.104e-6
1.086,   1.122e-6
1.087,   1.130e-6
1.088,   1.179e-6
1.089,   1.197e-6
1.090,   1.225e-6
1.091,   1.235e-6
1.092,   1.251e-6
1.093,   1.293e-6
1.094,   1.293e-6
1.095,   1.323e-6
1.096,   1.340e-6
1.097,   1.357e-6
1.098,   1.346e-6
1.099,   1.359e-6
1.100,   1.390e-6
1.101,   1.400e-6
1.102,   1.410e-6
1.103,   1.439e-6
1.104,   1.437e-6
1.105,   1.445e-6
1.106,   1.489e-6
1.107,   1.499e-6
1.108,   1.518e-6
1.109,   1.528e-6
1.110,   1.515e-6
1.111,   1.521e-6
1.112,   1.539e-6
1.113,   1.559e-6
1.114,   1.559e-6
1.115,   1.556e-6
1.116,   1.571e-6
1.117,   1.576e-6
1.118,   1.564e-6
1.119,   1.598e-6
1.120,   1.603e-6
1.121,   1.603e-6
1.122,   1.627e-6
1.123,   1.618e-6
1.124,   1.629e-6
1.125,   1.633e-6
1.126,   1.654e-6
1.127,   1.660e-6
1.128,   1.678e-6
1.129,   1.699e-6
1.130,   1.669e-6
1.131,   1.699e-6
1.132,   1.729e-6
1.133,   1.726e-6
1.134,   1.721e-6
1.135,   1.720e-6
1.136,   1.725e-6
1.137,   1.717e-6
1.138,   1.746e-6
1.139,   1.755e-6
1.140,   1.765e-6
1.141,   1.766e-6
1.142,   1.777e-6
1.143,   1.781e-6
1.144,   1.802e-6
1.145,   1.805e-6
1.146,   1.796e-6
1.147,   1.816e-6
1.148,   1.817e-6
1.149,   1.819e-6
1.150,   1.847e-6
1.151,   1.838e-6
1.152,   1.838e-6
1.153,   1.836e-6
1.154,   1.875e-6
1.155,   1.872e-6
1.156,   1.879e-6
1.157,   1.885e-6
1.158,   1.894e-6
1.159,   1.894e-6
1.160,   1.912e-6
1.161,   1.916e-6
1.162,   1.917e-6
1.163,   1.923e-6
1.164,   1.931e-6
1.165,   1.946e-6
1.166,   1.942e-6
1.167,   1.962e-6
1.168,   1.974e-6
1.169,   1.960e-6
1.170,   1.960e-6
1.171,   1.966e-6
1.172,   1.978e-6
1.173,   1.992e-6
1.174,   2.010e-6
1.175,   2.006e-6
1.176,   2.004e-6
1.177,   2.031e-6
1.178,   2.033e-6
1.179,   2.023e-6
1.180,   2.028e-6
1.181,   2.043e-6
1.182,   2.030e-6
1.183,   2.068e-6
1.184,   2.057e-6
1.185,   2.080e-6
1.186,   2.092e-6
1.187,   2.096e-6
1.188,   2.079e-6
1.189,   2.120e-6
1.190,   2.100e-6
1.191,   2.096e-6
1.192,   2.109e-6
1.193,   2.106e-6
1.194,   2.126e-6
1.195,   2.157e-6
1.196,   2.153e-6
1.197,   2.146e-6
1.198,   2.161e-6
1.199,   2.159e-6
1.200,   2.158e-6
1.201,   2.165e-6
1.202,   2.181e-6
1.203,   2.184e-6
1.204,   2.183e-6
1.205,   2.186e-6
1.206,   2.192e-6
1.207,   2.199e-6
1.208,   2.201e-6
1.209,   2.217e-6
1.210,   2.236e-6
1.211,   2.235e-6
1.212,   2.238e-6
1.213,   2.249e-6
1.214,   2.236e-6
1.215,   2.239e-6
1.216,   2.259e-6
1.217,   2.251e-6
1.218,   2.263e-6
1.219,   2.278e-6
1.220,   2.283e-6
1.221,   2.277e-6
1.222,   2.280e-6
1.223,   2.278e-6
1.224,   2.296e-6
1.225,   2.298e-6
1.226,   2.297e-6
1.227,   2.311e-6
1.228,   2.312e-6
1.229,   2.310e-6
1.230,   2.312e-6
1.231,   2.342e-6
1.232,   2.335e-6
1.233,   2.338e-6
1.234,   2.344e-6
1.235,   2.358e-6
1.236,   2.350e-6
1.237,   2.366e-6
1.238,   2.365e-6
1.239,   2.373e-6
1.240,   2.393e-6
1.241,   2.398e-6
1.242,   2.388e-6
1.243,   2.395e-6
1.244,   2.402e-6
1.245,   2.416e-6
1.246,   2.414e-6
1.247,   2.406e-6
1.248,   2.433e-6
1.249,   2.440e-6
1.250,   2.454e-6
1.251,   2.450e-6
1.252,   2.451e-6
1.253,   2.457e-6
1.254,   2.449e-6
1.255,   2.490e-6
1.256,   2.472e-6
1.257,   2.472e-6
1.258,   2.503e-6
1.259,   2.494e-6
1.260,   2.501e-6
1.261,   2.527e-6
1.262,   2.513e-6
1.263,   2.525e-6
1.264,   2.559e-6
1.265,   2.560e-6
1.266,   2.547e-6
1.267,   2.580e-6
1.268,   2.585e-6
1.269,   2.569e-6
1.270,   2.578e-6
1.271,   2.580e-6
1.272,   2.593e-6
1.273,   2.605e-6
1.274,   2.615e-6
1.275,   2.638e-6
1.276,   2.637e-6
1.277,   2.661e-6
1.278,   2.664e-6
1.279,   2.680e-6
1.280,   2.705e-6
1.281,   2.692e-6
1.282,   2.691e-6
1.283,   2.703e-6
1.284,   2.703e-6
1.285,   2.718e-6
1.286,   2.722e-6
1.287,   2.749e-6
1.288,   2.758e-6
1.289,   2.759e-6
1.290,   2.774e-6
1.291,   2.783e-6
1.292,   2.817e-6
1.293,   2.809e-6
1.294,   2.808e-6
1.295,   2.840e-6
1.296,   2.865e-6
1.297,   2.866e-6
1.298,   2.881e-6
1.299,   2.906e-6
1.300,   2.907e-6
1.301,   2.910e-6
1.302,   2.940e-6
1.303,   2.961e-6
1.304,   2.953e-6
1.305,   2.979e-6
1.306,   2.975e-6
1.307,   2.994e-6
1.308,   3.014e-6
1.309,   3.028e-6
1.310,   3.051e-6
1.311,   3.057e-6
1.312,   3.081e-6
1.313,   3.079e-6
1.314,   3.098e-6
1.315,   3.119e-6
1.316,   3.128e-6
1.317,   3.178e-6
1.318,   3.166e-6
1.319,   3.185e-6
1.320,   3.213e-6
1.321,   3.224e-6
1.322,   3.247e-6
1.323,   3.249e-6
1.324,   3.275e-6
1.325,   3.318e-6
1.326,   3.311e-6
1.327,   3.322e-6
1.328,   3.335e-6
1.329,   3.388e-6
1.330,   3.399e-6
1.331,   3.401e-6
1.332,   3.416e-6
1.333,   3.439e-6
1.334,   3.464e-6
1.335,   3.469e-6
1.336,   3.521e-6
1.337,   3.528e-6
1.338,   3.550e-6
1.339,   3.568e-6
1.340,   3.595e-6
1.341,   3.601e-6
1.342,   3.642e-6
1.343,   3.664e-6
1.344,   3.671e-6
1.345,   3.686e-6
1.346,   3.711e-6
1.347,   3.755e-6
1.348,   3.794e-6
1.349,   3.812e-6
1.350,   3.822e-6
1.351,   3.868e-6
1.352,   3.892e-6
1.353,   3.915e-6
1.354,   3.913e-6
1.355,   3.962e-6
1.356,   4.003e-6
1.357,   4.039e-6
1.358,   4.060e-6
1.359,   4.108e-6
1.360,   4.158e-6
1.361,   4.191e-6
1.362,   4.233e-6
1.363,   4.246e-6
1.364,   4.280e-6
1.365,   4.332e-6
1.366,   4.365e-6
1.367,   4.423e-6
1.368,   4.470e-6
1.369,   4.488e-6
1.370,   4.549e-6
1.371,   4.600e-6
1.372,   4.660e-6
1.373,   4.728e-6
1.374,   4.755e-6
1.375,   4.793e-6
1.376,   4.881e-6
1.377,   4.917e-6
1.378,   4.991e-6
1.379,   5.059e-6
1.380,   5.118e-6
1.381,   5.168e-6
1.382,   5.259e-6
1.383,   5.313e-6
1.384,   5.410e-6
1.385,   5.497e-6
1.386,   5.586e-6
1.387,   5.689e-6
1.388,   5.780e-6
1.389,   5.887e-6
1.390,   5.983e-6
1.391,   6.099e-6
1.392,   6.224e-6
1.393,   6.308e-6
1.394,   6.419e-6
1.395,   6.568e-6
1.396,   6.697e-6
1.397,   6.836e-6
1.398,   6.978e-6
1.399,   7.142e-6
1.400,   7.329e-6
1.401,   7.455e-6
1.402,   7.624e-6
1.403,   7.785e-6
1.404,   7.982e-6
1.405,   8.181e-6
1.406,   8.342e-6
1.407,   8.564e-6
1.408,   8.791e-6
1.409,   9.008e-6
1.410,   9.262e-6
1.411,   9.538e-6
1.412,   9.785e-6
1.413,   1.009e-5
1.414,   1.035e-5
1.415,   1.065e-5
1.416,   1.095e-5
1.417,   1.128e-5
1.418,   1.164e-5
1.419,   1.200e-5
1.420,   1.236e-5
1.421,   1.280e-5
1.422,   1.319e-5
1.423,   1.361e-5
1.424,   1.408e-5
1.425,   1.452e-5
1.426,   1.502e-5
1.427,   1.552e-5
1.428,   1.608e-5
1.429,   1.662e-5
1.430,   1.718e-5
1.431,   1.778e-5
1.432,   1.844e-5
1.433,   1.906e-5
1.434,   1.978e-5
1.435,   2.051e-5
1.436,   2.125e-5
1.437,   2.207e-5
1.438,   2.286e-5
1.439,   2.374e-5
1.440,   2.464e-5
1.441,   2.555e-5
1.442,   2.652e-5
1.443,   2.749e-5
1.444,   2.849e-5
1.445,   2.961e-5
1.446,   3.069e-5
1.447,   3.186e-5
1.448,   3.304e-5
1.449,   3.431e-5
1.450,   3.562e-5
1.451,   3.696e-5
1.452,   3.819e-5
1.453,   3.964e-5
1.454,   4.109e-5
1.455,   4.264e-5
1.456,   4.425e-5
1.457,   4.587e-5
1.458,   4.759e-5
1.459,   4.932e-5
1.460,   5.114e-5
1.461,   5.302e-5
1.462,   5.494e-5
1.463,   5.693e-5
1.464,   5.900e-5
1.465,   6.113e-5
1.466,   6.326e-5
1.467,   6.544e-5
1.468,   6.772e-5
1.469,   7.008e-5
1.470,   7.246e-5
1.471,   7.494e-5
1.472,   7.756e-5
1.473,   8.015e-5
1.474,   8.279e-5
1.475,   8.561e-5
1.476,   8.852e-5
1.477,   9.139e-5
1.478,   9.421e-5
1.479,   9.716e-5
1.480,   1.002e-4
1.481,   1.032e-4
1.482,   1.064e-4
1.483,   1.097e-4
1.484,   1.129e-4
1.485,   1.159e-4
1.486,   1.190e-4
1.487,   1.223e-4
1.488,   1.261e-4
1.489,   1.297e-4
1.490,   1.334e-4
1.491,   1.371e-4
1.492,   1.410e-4
1.493,   1.447e-4
1.494,   1.482e-4
1.495,   1.523e-4
1.496,   1.566e-4
1.497,   1.605e-4
1.498,   1.645e-4
1.499,   1.687e-4
1.500,   1.733e-4
1.501,   1.780e-4
1.502,   1.824e-4
1.503,   1.872e-4
1.504,   1.919e-4
1.505,   1.961e-4
1.506,   2.012e-4
1.507,   2.067e-4
1.508,   2.113e-4
1.509,   2.168e-4
1.510,   2.229e-4
1.511,   2.286e-4
1.512,   2.345e-4
1.513,   2.408e-4
1.514,   2.476e-4
1.515,   2.535e-4
1.516,   2.597e-4
1.517,   2.661e-4
1.518,   2.729e-4
1.519,   2.794e-4
1.520,   2.864e-4
1.521,   2.935e-4
1.522,   3.005e-4
1.523,   3.082e-4
1.524,   3.162e-4
1.525,   3.236e-4
1.526,   3.325e-4
1.527,   3.414e-4
1.528,   3.505e-4
1.529,   3.593e-4
1.530,   3.681e-4
1.531,   3.765e-4
1.532,   3.869e-4
1.533,   3.955e-4
1.534,   4.052e-4
1.535,   4.163e-4
1.536,   4.269e-4
1.537,   4.375e-4
1.538,   4.485e-4
1.539,   4.602e-4
1.540,   4.709e-4
1.541,   4.832e-4
1.542,   4.959e-4
1.543,   5.070e-4
1.544,   5.192e-4
1.545,   5.319e-4
1.546,   5.450e-4
1.547,   5.580e-4
1.548,   5.709e-4
1.549,   5.852e-4
1.550,   6.002e-4
1.551,   6.134e-4
1.552,   6.273e-4
1.553,   6.419e-4
1.554,   6.569e-4
1.555,   6.718e-4
1.556,   6.885e-4
1.557,   7.040e-4
1.558,   7.193e-4
1.559,   7.353e-4
1.560,   7.511e-4
1.561,   7.673e-4
1.562,   7.837e-4
1.563,   8.004e-4
1.564,   8.189e-4
1.565,   8.375e-4
1.566,   8.566e-4
1.567,   8.739e-4
1.568,   8.898e-4
1.569,   9.072e-4
1.570,   9.249e-4
1.571,   9.440e-4
1.572,   9.634e-4
1.573,   9.827e-4
1.574,   1.002e-3
1.575,   1.020e-3
1.576,   1.038e-3
1.577,   1.057e-3
1.578,   1.079e-3
1.579,   1.098e-3
1.580,   1.117e-3
1.581,   1.133e-3
1.582,   1.153e-3
1.583,   1.173e-3
1.584,   1.191e-3
1.585,   1.211e-3
1.586,   1.231e-3
1.587,   1.249e-3
1.588,   1.268e-3
1.589,   1.287e-3
1.590,   1.305e-3
1.591,   1.323e-3
1.592,   1.341e-3
1.593,   1.357e-3
1.594,   1.375e-3
1.595,   1.395e-3
1.596,   1.414e-3
1.597,   1.434e-3
1.598,   1.453e-3
1.599,   1.477e-3
1.600,   1.496e-3
1.601,   1.512e-3
1.602,   1.532e-3
1.603,   1.549e-3
1.604,   1.565e-3
1.605,   1.582e-3
1.606,   1.599e-3
1.607,   1.615e-3
1.608,   1.630e-3
1.609,   1.643e-3
1.610,   1.658e-3
1.611,   1.670e-3
1.612,   1.682e-3
1.613,   1.699e-3
1.614,   1.712e-3
1.615,   1.727e-3
1.616,   1.740e-3
1.617,   1.755e-3
1.618,   1.768e-3
1.619,   1.781e-3
1.620,   1.794e-3
1.621,   1.809e-3
1.622,   1.821e-3
1.623,   1.831e-3
1.624,   1.842e-3
1.625,   1.851e-3
1.626,   1.859e-3
1.627,   1.869e-3
1.628,   1.882e-3
1.629,   1.894e-3
1.630,   1.914e-3
1.631,   1.927e-3
1.632,   1.951e-3
1.633,   1.963e-3
1.634,   1.970e-3
1.635,   1.977e-3
1.636,   1.998e-3
1.637,   2.013e-3
1.638,   2.022e-3
1.639,   2.029e-3
1.640,   2.032e-3
1.641,   2.040e-3
1.642,   2.045e-3
1.643,   2.053e-3
1.644,   2.060e-3
1.645,   2.065e-3
1.646,   2.068e-3
1.647,   2.072e-3
1.648,   2.077e-3
1.649,   2.089e-3
1.650,   2.101e-3
1.651,   2.108e-3
1.652,   2.115e-3
1.653,   2.119e-3
1.654,   2.122e-3
1.655,   2.122e-3
1.656,   2.123e-3
1.657,   2.130e-3
1.658,   2.133e-3
1.659,   2.129e-3
1.660,   2.134e-3
1.661,   2.144e-3
1.662,   2.147e-3
1.663,   2.156e-3
1.664,   2.160e-3
1.665,   2.170e-3
1.666,   2.174e-3
1.667,   2.180e-3
1.668,   2.192e-3
1.669,   2.205e-3