File: Experimental Records and Raw Data/batch4/final400/B4_VARIANCE_400_#3_High_Quality(#27)-346mV.txt
Mar. 28, 2023   17:43:48
Linear Sweep Voltammetry
File: d:\current work\al_oer\electrochemical test data\batch 4\400\B4_VARIANCE_400_#3_High_Quality(#27)-346mV.txt
Data Source:  Experiment
Instrument Model:  CHI660E
Header:
Note:

Init E (V) = 1.135

Final E (V) = 1.634

Scan Rate (V/s) = 0.010
Sample Interval (V) = 0.001
Quiet Time (sec) = 2
Sensitivity (A/V) = 0.001
Comp R (ohm) = 7.1

Results:

Channel 1:

Potential/V, Current/A
1.135,   -5.539e-6
1.136,   -3.955e-6
1.137,   -3.479e-6
1.138,   -3.127e-6
1.139,   -2.766e-6
1.140,   -2.441e-6
1.141,   -2.167e-6
1.142,   -1.869e-6
1.143,   -1.640e-6
1.144,   -1.462e-6
1.145,   -1.280e-6
1.146,   -1.143e-6
1.147,   -9.609e-7
1.148,   -8.005e-7
1.149,   -6.731e-7
1.150,   -5.371e-7
1.151,   -3.869e-7
1.152,   -2.886e-7
1.153,   -1.659e-7
1.154,   -3.460e-8
1.155,   8.021e-8
1.156,   1.392e-7
1.157,   2.406e-7
1.158,   3.570e-7
1.159,   4.482e-7
1.160,   5.363e-7
1.161,   6.031e-7
1.162,   6.936e-7
1.163,   7.761e-7
1.164,   8.831e-7
1.165,   9.649e-7
1.166,   1.048e-6
1.167,   1.118e-6
1.168,   1.157e-6
1.169,   1.267e-6
1.170,   1.301e-6
1.171,   1.397e-6
1.172,   1.466e-6
1.173,   1.551e-6
1.174,   1.629e-6
1.175,   1.662e-6
1.176,   1.714e-6
1.177,   1.742e-6
1.178,   1.885e-6
1.179,   1.928e-6
1.180,   1.989e-6
1.181,   2.040e-6
1.182,   2.090e-6
1.183,   2.096e-6
1.184,   2.177e-6
1.185,   2.251e-6
1.186,   2.273e-6
1.187,   2.317e-6
1.188,   2.393e-6
1.189,   2.402e-6
1.190,   2.488e-6
1.191,   2.517e-6
1.192,   2.558e-6
1.193,   2.582e-6
1.194,   2.633e-6
1.195,   2.690e-6
1.196,   2.725e-6
1.197,   2.781e-6
1.198,   2.829e-6
1.199,   2.855e-6
1.200,   2.902e-6
1.201,   2.957e-6
1.202,   2.979e-6
1.203,   3.020e-6
1.204,   3.041e-6
1.205,   3.105e-6
1.206,   3.174e-6
1.207,   3.208e-6
1.208,   3.249e-6
1.209,   3.280e-6
1.210,   3.291e-6
1.211,   3.353e-6
1.212,   3.392e-6
1.213,   3.461e-6
1.214,   3.518e-6
1.215,   3.515e-6
1.216,   3.562e-6
1.217,   3.614e-6
1.218,   3.607e-6
1.219,   3.690e-6
1.220,   3.734e-6
1.221,   3.769e-6
1.222,   3.775e-6
1.223,   3.816e-6
1.224,   3.868e-6
1.225,   3.908e-6
1.226,   3.974e-6
1.227,   3.988e-6
1.228,   4.021e-6
1.229,   4.028e-6
1.230,   4.074e-6
1.231,   4.102e-6
1.232,   4.132e-6
1.233,   4.206e-6
1.234,   4.230e-6
1.235,   4.260e-6
1.236,   4.307e-6
1.237,   4.315e-6
1.238,   4.348e-6
1.239,   4.382e-6
1.240,   4.391e-6
1.241,   4.466e-6
1.242,   4.453e-6
1.243,   4.496e-6
1.244,   4.544e-6
1.245,   4.565e-6
1.246,   4.593e-6
1.247,   4.576e-6
1.248,   4.614e-6
1.249,   4.656e-6
1.250,   4.691e-6
1.251,   4.710e-6
1.252,   4.735e-6
1.253,   4.753e-6
1.254,   4.767e-6
1.255,   4.789e-6
1.256,   4.806e-6
1.257,   4.847e-6
1.258,   4.830e-6
1.259,   4.882e-6
1.260,   4.911e-6
1.261,   4.927e-6
1.262,   4.960e-6
1.263,   4.982e-6
1.264,   4.987e-6
1.265,   5.021e-6
1.266,   5.008e-6
1.267,   5.028e-6
1.268,   5.052e-6
1.269,   5.060e-6
1.270,   5.102e-6
1.271,   5.095e-6
1.272,   5.118e-6
1.273,   5.151e-6
1.274,   5.139e-6
1.275,   5.155e-6
1.276,   5.177e-6
1.277,   5.206e-6
1.278,   5.224e-6
1.279,   5.206e-6
1.280,   5.235e-6
1.281,   5.262e-6
1.282,   5.254e-6
1.283,   5.257e-6
1.284,   5.287e-6
1.285,   5.269e-6
1.286,   5.316e-6
1.287,   5.282e-6
1.288,   5.339e-6
1.289,   5.344e-6
1.290,   5.334e-6
1.291,   5.383e-6
1.292,   5.397e-6
1.293,   5.384e-6
1.294,   5.439e-6
1.295,   5.418e-6
1.296,   5.420e-6
1.297,   5.439e-6
1.298,   5.451e-6
1.299,   5.456e-6
1.300,   5.443e-6
1.301,   5.436e-6
1.302,   5.504e-6
1.303,   5.490e-6
1.304,   5.519e-6
1.305,   5.540e-6
1.306,   5.514e-6
1.307,   5.539e-6
1.308,   5.546e-6
1.309,   5.556e-6
1.310,   5.599e-6
1.311,   5.578e-6
1.312,   5.596e-6
1.313,   5.621e-6
1.314,   5.575e-6
1.315,   5.608e-6
1.316,   5.633e-6
1.317,   5.607e-6
1.318,   5.654e-6
1.319,   5.626e-6
1.320,   5.666e-6
1.321,   5.670e-6
1.322,   5.665e-6
1.323,   5.641e-6
1.324,   5.697e-6
1.325,   5.677e-6
1.326,   5.729e-6
1.327,   5.703e-6
1.328,   5.719e-6
1.329,   5.751e-6
1.330,   5.751e-6
1.331,   5.789e-6
1.332,   5.762e-6
1.333,   5.769e-6
1.334,   5.764e-6
1.335,   5.821e-6
1.336,   5.841e-6
1.337,   5.860e-6
1.338,   5.827e-6
1.339,   5.865e-6
1.340,   5.836e-6
1.341,   5.853e-6
1.342,   5.908e-6
1.343,   5.876e-6
1.344,   5.894e-6
1.345,   5.918e-6
1.346,   5.939e-6
1.347,   5.997e-6
1.348,   6.020e-6
1.349,   5.972e-6
1.350,   5.988e-6
1.351,   6.003e-6
1.352,   6.024e-6
1.353,   6.066e-6
1.354,   6.055e-6
1.355,   6.085e-6
1.356,   6.095e-6
1.357,   6.113e-6
1.358,   6.130e-6
1.359,   6.128e-6
1.360,   6.179e-6
1.361,   6.219e-6
1.362,   6.215e-6
1.363,   6.183e-6
1.364,   6.234e-6
1.365,   6.249e-6
1.366,   6.290e-6
1.367,   6.280e-6
1.368,   6.318e-6
1.369,   6.344e-6
1.370,   6.336e-6
1.371,   6.358e-6
1.372,   6.386e-6
1.373,   6.450e-6
1.374,   6.475e-6
1.375,   6.447e-6
1.376,   6.469e-6
1.377,   6.543e-6
1.378,   6.523e-6
1.379,   6.572e-6
1.380,   6.583e-6
1.381,   6.585e-6
1.382,   6.627e-6
1.383,   6.660e-6
1.384,   6.709e-6
1.385,   6.765e-6
1.386,   6.752e-6
1.387,   6.798e-6
1.388,   6.835e-6
1.389,   6.849e-6
1.390,   6.884e-6
1.391,   6.860e-6
1.392,   6.950e-6
1.393,   6.997e-6
1.394,   7.028e-6
1.395,   7.074e-6
1.396,   7.103e-6
1.397,   7.124e-6
1.398,   7.187e-6
1.399,   7.231e-6
1.400,   7.299e-6
1.401,   7.363e-6
1.402,   7.417e-6
1.403,   7.494e-6
1.404,   7.507e-6
1.405,   7.587e-6
1.406,   7.687e-6
1.407,   7.757e-6
1.408,   7.847e-6
1.409,   7.888e-6
1.410,   7.966e-6
1.411,   8.058e-6
1.412,   8.101e-6
1.413,   8.190e-6
1.414,   8.323e-6
1.415,   8.360e-6
1.416,   8.435e-6
1.417,   8.581e-6
1.418,   8.645e-6
1.419,   8.772e-6
1.420,   8.873e-6
1.421,   8.993e-6
1.422,   9.124e-6
1.423,   9.159e-6
1.424,   9.317e-6
1.425,   9.489e-6
1.426,   9.636e-6
1.427,   9.805e-6
1.428,   9.943e-6
1.429,   1.010e-5
1.430,   1.030e-5
1.431,   1.045e-5
1.432,   1.061e-5
1.433,   1.080e-5
1.434,   1.099e-5
1.435,   1.122e-5
1.436,   1.140e-5
1.437,   1.167e-5
1.438,   1.192e-5
1.439,   1.218e-5
1.440,   1.243e-5
1.441,   1.275e-5
1.442,   1.297e-5
1.443,   1.332e-5
1.444,   1.369e-5
1.445,   1.399e-5
1.446,   1.442e-5
1.447,   1.476e-5
1.448,   1.512e-5
1.449,   1.556e-5
1.450,   1.602e-5
1.451,   1.643e-5
1.452,   1.691e-5
1.453,   1.738e-5
1.454,   1.799e-5
1.455,   1.845e-5
1.456,   1.907e-5
1.457,   1.968e-5
1.458,   2.029e-5
1.459,   2.100e-5
1.460,   2.170e-5
1.461,   2.243e-5
1.462,   2.326e-5
1.463,   2.401e-5
1.464,   2.487e-5
1.465,   2.583e-5
1.466,   2.671e-5
1.467,   2.769e-5
1.468,   2.876e-5
1.469,   2.983e-5
1.470,   3.099e-5
1.471,   3.210e-5
1.472,   3.335e-5
1.473,   3.469e-5
1.474,   3.601e-5
1.475,   3.746e-5
1.476,   3.890e-5
1.477,   4.039e-5
1.478,   4.210e-5
1.479,   4.377e-5
1.480,   4.553e-5
1.481,   4.746e-5
1.482,   4.940e-5
1.483,   5.151e-5
1.484,   5.364e-5
1.485,   5.586e-5
1.486,   5.831e-5
1.487,   6.067e-5
1.488,   6.329e-5
1.489,   6.615e-5
1.490,   6.888e-5
1.491,   7.189e-5
1.492,   7.503e-5
1.493,   7.838e-5
1.494,   8.183e-5
1.495,   8.540e-5
1.496,   8.926e-5
1.497,   9.322e-5
1.498,   9.728e-5
1.499,   1.017e-4
1.500,   1.062e-4
1.501,   1.110e-4
1.502,   1.160e-4
1.503,   1.212e-4
1.504,   1.268e-4
1.505,   1.325e-4
1.506,   1.384e-4
1.507,   1.447e-4
1.508,   1.513e-4
1.509,   1.583e-4
1.510,   1.655e-4
1.511,   1.729e-4
1.512,   1.807e-4
1.513,   1.889e-4
1.514,   1.974e-4
1.515,   2.063e-4
1.516,   2.156e-4
1.517,   2.254e-4
1.518,   2.358e-4
1.519,   2.464e-4
1.520,   2.575e-4
1.521,   2.689e-4
1.522,   2.810e-4
1.523,   2.937e-4
1.524,   3.069e-4
1.525,   3.207e-4
1.526,   3.348e-4
1.527,   3.497e-4
1.528,   3.652e-4
1.529,   3.812e-4
1.530,   3.980e-4
1.531,   4.154e-4
1.532,   4.335e-4
1.533,   4.521e-4
1.534,   4.717e-4
1.535,   4.917e-4
1.536,   5.125e-4
1.537,   5.339e-4
1.538,   5.562e-4
1.539,   5.778e-4
1.540,   5.989e-4
1.541,   6.238e-4
1.542,   6.499e-4
1.543,   6.758e-4
1.544,   7.024e-4
1.545,   7.294e-4
1.546,   7.575e-4
1.547,   7.863e-4
1.548,   8.152e-4
1.549,   8.461e-4
1.550,   8.773e-4
1.551,   9.087e-4
1.552,   9.413e-4
1.553,   9.742e-4
1.554,   1.008e-3
1.555,   1.042e-3
1.556,   1.076e-3
1.557,   1.112e-3
1.558,   1.149e-3
1.559,   1.186e-3
1.560,   1.224e-3
1.561,   1.263e-3
1.562,   1.302e-3
1.563,   1.342e-3
1.564,   1.382e-3
1.565,   1.424e-3
1.566,   1.466e-3
1.567,   1.508e-3
1.568,   1.551e-3
1.569,   1.595e-3
1.570,   1.639e-3
1.571,   1.684e-3
1.572,   1.729e-3
1.573,   1.775e-3
1.574,   1.820e-3
1.575,   1.868e-3
1.576,   1.916e-3
1.577,   1.956e-3
1.578,   2.002e-3
1.579,   2.061e-3
1.580,   2.114e-3
1.581,   2.167e-3
1.582,   2.220e-3
1.583,   2.273e-3
1.584,   2.327e-3
1.585,   2.381e-3
1.586,   2.434e-3
1.587,   2.488e-3
1.588,   2.542e-3
1.589,   2.597e-3
1.590,   2.649e-3
1.591,   2.701e-3
1.592,   2.757e-3
1.593,   2.824e-3
1.594,   2.885e-3
1.595,   2.947e-3
1.596,   3.009e-3
1.597,   3.064e-3
1.598,   3.123e-3
1.599,   3.180e-3
1.600,   3.244e-3
1.601,   3.304e-3
1.602,   3.338e-3
1.603,   3.395e-3
1.604,   3.465e-3
1.605,   3.533e-3
1.606,   3.597e-3
1.607,   3.664e-3
1.608,   3.734e-3
1.609,   3.802e-3
1.610,   3.870e-3
1.611,   3.948e-3
1.612,   4.021e-3
1.613,   4.098e-3
1.614,   4.187e-3
1.615,   4.266e-3
1.616,   4.338e-3
1.617,   4.412e-3
1.618,   4.486e-3
1.619,   4.559e-3
1.620,   4.624e-3
1.621,   4.673e-3
1.622,   4.764e-3
1.623,   4.843e-3
1.624,   4.897e-3
1.625,   4.982e-3
1.626,   5.059e-3
1.627,   5.129e-3
1.628,   5.196e-3
1.629,   5.271e-3
1.630,   5.411e-3
1.631,   5.486e-3
1.632,   5.542e-3
1.633,   5.596e-3
1.634,   5.640e-3