File: Experimental Records and Raw Data/batch2/final500/B2_BEST_500#4_Full-241mV.txt
Jan. 18, 2023   15:50:08
Linear Sweep Voltammetry
File: d:\current work\al_oer\electrochemical test data\batch 2\500\B2_BEST_500#4_Full-241mV.txt
Data Source:  Experiment
Instrument Model:  CHI660E
Header:
Note:

Init E (V) = 1.099

Final E (V) = 1.532

Scan Rate (V/s) = 0.010
Sample Interval (V) = 0.001
Quiet Time (sec) = 2
Sensitivity (A/V) = 0.001
Comp R (ohm) = 5.0

Results:

Channel 1:

Potential/V, Current/A
1.099,   1.355e-4
1.100,   1.385e-4
1.101,   1.319e-4
1.102,   1.248e-4
1.103,   1.189e-4
1.104,   1.137e-4
1.105,   1.087e-4
1.106,   1.046e-4
1.107,   1.007e-4
1.108,   9.716e-5
1.109,   9.440e-5
1.110,   9.143e-5
1.111,   8.891e-5
1.112,   8.683e-5
1.113,   8.480e-5
1.114,   8.294e-5
1.115,   8.119e-5
1.116,   7.960e-5
1.117,   7.837e-5
1.118,   7.711e-5
1.119,   7.583e-5
1.120,   7.483e-5
1.121,   7.384e-5
1.122,   7.277e-5
1.123,   7.185e-5
1.124,   7.122e-5
1.125,   7.036e-5
1.126,   6.972e-5
1.127,   6.958e-5
1.128,   6.902e-5
1.129,   6.850e-5
1.130,   6.752e-5
1.131,   6.671e-5
1.132,   6.638e-5
1.133,   6.618e-5
1.134,   6.562e-5
1.135,   6.591e-5
1.136,   6.485e-5
1.137,   6.434e-5
1.138,   6.433e-5
1.139,   6.409e-5
1.140,   6.366e-5
1.141,   6.347e-5
1.142,   6.310e-5
1.143,   6.304e-5
1.144,   6.305e-5
1.145,   6.301e-5
1.146,   6.286e-5
1.147,   6.269e-5
1.148,   6.246e-5
1.149,   6.224e-5
1.150,   6.206e-5
1.151,   6.195e-5
1.152,   6.172e-5
1.153,   6.167e-5
1.154,   6.174e-5
1.155,   6.143e-5
1.156,   6.168e-5
1.157,   6.149e-5
1.158,   6.148e-5
1.159,   6.167e-5
1.160,   6.145e-5
1.161,   6.142e-5
1.162,   6.172e-5
1.163,   6.140e-5
1.164,   6.173e-5
1.165,   6.190e-5
1.166,   6.158e-5
1.167,   6.186e-5
1.168,   6.192e-5
1.169,   6.177e-5
1.170,   6.216e-5
1.171,   6.223e-5
1.172,   6.227e-5
1.173,   6.251e-5
1.174,   6.215e-5
1.175,   6.216e-5
1.176,   6.239e-5
1.177,   6.244e-5
1.178,   6.248e-5
1.179,   6.251e-5
1.180,   6.259e-5
1.181,   6.278e-5
1.182,   6.286e-5
1.183,   6.310e-5
1.184,   6.318e-5
1.185,   6.335e-5
1.186,   6.384e-5
1.187,   6.424e-5
1.188,   6.446e-5
1.189,   6.440e-5
1.190,   6.442e-5
1.191,   6.464e-5
1.192,   6.458e-5
1.193,   6.481e-5
1.194,   6.481e-5
1.195,   6.462e-5
1.196,   6.508e-5
1.197,   6.541e-5
1.198,   6.523e-5
1.199,   6.542e-5
1.200,   6.563e-5
1.201,   6.555e-5
1.202,   6.593e-5
1.203,   6.598e-5
1.204,   6.604e-5
1.205,   6.638e-5
1.206,   6.640e-5
1.207,   6.660e-5
1.208,   6.682e-5
1.209,   6.691e-5
1.210,   6.713e-5
1.211,   6.718e-5
1.212,   6.743e-5
1.213,   6.754e-5
1.214,   6.763e-5
1.215,   6.809e-5
1.216,   6.792e-5
1.217,   6.814e-5
1.218,   6.860e-5
1.219,   6.832e-5
1.220,   6.863e-5
1.221,   6.896e-5
1.222,   6.913e-5
1.223,   6.945e-5
1.224,   6.942e-5
1.225,   6.930e-5
1.226,   6.995e-5
1.227,   6.981e-5
1.228,   7.003e-5
1.229,   7.037e-5
1.230,   7.018e-5
1.231,   7.041e-5
1.232,   7.073e-5
1.233,   7.068e-5
1.234,   7.084e-5
1.235,   7.108e-5
1.236,   7.104e-5
1.237,   7.116e-5
1.238,   7.127e-5
1.239,   7.151e-5
1.240,   7.131e-5
1.241,   7.167e-5
1.242,   7.186e-5
1.243,   7.154e-5
1.244,   7.212e-5
1.245,   7.206e-5
1.246,   7.192e-5
1.247,   7.256e-5
1.248,   7.234e-5
1.249,   7.243e-5
1.250,   7.285e-5
1.251,   7.237e-5
1.252,   7.267e-5
1.253,   7.277e-5
1.254,   7.249e-5
1.255,   7.282e-5
1.256,   7.281e-5
1.257,   7.259e-5
1.258,   7.310e-5
1.259,   7.274e-5
1.260,   7.289e-5
1.261,   7.319e-5
1.262,   7.296e-5
1.263,   7.305e-5
1.264,   7.318e-5
1.265,   7.308e-5
1.266,   7.324e-5
1.267,   7.316e-5
1.268,   7.309e-5
1.269,   7.336e-5
1.270,   7.336e-5
1.271,   7.337e-5
1.272,   7.339e-5
1.273,   7.353e-5
1.274,   7.350e-5
1.275,   7.333e-5
1.276,   7.357e-5
1.277,   7.351e-5
1.278,   7.329e-5
1.279,   7.370e-5
1.280,   7.342e-5
1.281,   7.342e-5
1.282,   7.372e-5
1.283,   7.329e-5
1.284,   7.354e-5
1.285,   7.374e-5
1.286,   7.349e-5
1.287,   7.371e-5
1.288,   7.367e-5
1.289,   7.331e-5
1.290,   7.375e-5
1.291,   7.345e-5
1.292,   7.345e-5
1.293,   7.377e-5
1.294,   7.359e-5
1.295,   7.342e-5
1.296,   7.358e-5
1.297,   7.360e-5
1.298,   7.361e-5
1.299,   7.365e-5
1.300,   7.374e-5
1.301,   7.372e-5
1.302,   7.359e-5
1.303,   7.375e-5
1.304,   7.366e-5
1.305,   7.383e-5
1.306,   7.378e-5
1.307,   7.356e-5
1.308,   7.390e-5
1.309,   7.392e-5
1.310,   7.374e-5
1.311,   7.420e-5
1.312,   7.409e-5
1.313,   7.392e-5
1.314,   7.428e-5
1.315,   7.398e-5
1.316,   7.406e-5
1.317,   7.444e-5
1.318,   7.406e-5
1.319,   7.438e-5
1.320,   7.445e-5
1.321,   7.430e-5
1.322,   7.459e-5
1.323,   7.457e-5
1.324,   7.458e-5
1.325,   7.491e-5
1.326,   7.468e-5
1.327,   7.473e-5
1.328,   7.491e-5
1.329,   7.501e-5
1.330,   7.508e-5
1.331,   7.513e-5
1.332,   7.528e-5
1.333,   7.526e-5
1.334,   7.537e-5
1.335,   7.567e-5
1.336,   7.553e-5
1.337,   7.581e-5
1.338,   7.622e-5
1.339,   7.593e-5
1.340,   7.636e-5
1.341,   7.648e-5
1.342,   7.655e-5
1.343,   7.717e-5
1.344,   7.700e-5
1.345,   7.696e-5
1.346,   7.739e-5
1.347,   7.724e-5
1.348,   7.743e-5
1.349,   7.788e-5
1.350,   7.786e-5
1.351,   7.805e-5
1.352,   7.835e-5
1.353,   7.822e-5
1.354,   7.860e-5
1.355,   7.892e-5
1.356,   7.911e-5
1.357,   7.940e-5
1.358,   7.950e-5
1.359,   7.983e-5
1.360,   8.014e-5
1.361,   8.041e-5
1.362,   8.081e-5
1.363,   8.105e-5
1.364,   8.158e-5
1.365,   8.191e-5
1.366,   8.222e-5
1.367,   8.276e-5
1.368,   8.290e-5
1.369,   8.354e-5
1.370,   8.408e-5
1.371,   8.423e-5
1.372,   8.499e-5
1.373,   8.555e-5
1.374,   8.572e-5
1.375,   8.688e-5
1.376,   8.743e-5
1.377,   8.782e-5
1.378,   8.892e-5
1.379,   8.933e-5
1.380,   9.016e-5
1.381,   9.135e-5
1.382,   9.199e-5
1.383,   9.291e-5
1.384,   9.403e-5
1.385,   9.493e-5
1.386,   9.606e-5
1.387,   9.723e-5
1.388,   9.856e-5
1.389,   9.997e-5
1.390,   1.014e-4
1.391,   1.028e-4
1.392,   1.043e-4
1.393,   1.062e-4
1.394,   1.080e-4
1.395,   1.095e-4
1.396,   1.119e-4
1.397,   1.140e-4
1.398,   1.160e-4
1.399,   1.187e-4
1.400,   1.210e-4
1.401,   1.239e-4
1.402,   1.270e-4
1.403,   1.295e-4
1.404,   1.330e-4
1.405,   1.365e-4
1.406,   1.399e-4
1.407,   1.441e-4
1.408,   1.481e-4
1.409,   1.522e-4
1.410,   1.573e-4
1.411,   1.618e-4
1.412,   1.670e-4
1.413,   1.727e-4
1.414,   1.784e-4
1.415,   1.845e-4
1.416,   1.911e-4
1.417,   1.977e-4
1.418,   2.050e-4
1.419,   2.126e-4
1.420,   2.208e-4
1.421,   2.294e-4
1.422,   2.384e-4
1.423,   2.480e-4
1.424,   2.578e-4
1.425,   2.685e-4
1.426,   2.797e-4
1.427,   2.917e-4
1.428,   3.042e-4
1.429,   3.170e-4
1.430,   3.303e-4
1.431,   3.451e-4
1.432,   3.598e-4
1.433,   3.754e-4
1.434,   3.927e-4
1.435,   4.095e-4
1.436,   4.278e-4
1.437,   4.473e-4
1.438,   4.668e-4
1.439,   4.879e-4
1.440,   5.100e-4
1.441,   5.325e-4
1.442,   5.565e-4
1.443,   5.814e-4
1.444,   6.078e-4
1.445,   6.350e-4
1.446,   6.634e-4
1.447,   6.929e-4
1.448,   7.235e-4
1.449,   7.558e-4
1.450,   7.893e-4
1.451,   8.241e-4
1.452,   8.608e-4
1.453,   8.986e-4
1.454,   9.376e-4
1.455,   9.782e-4
1.456,   1.020e-3
1.457,   1.064e-3
1.458,   1.109e-3
1.459,   1.156e-3
1.460,   1.205e-3
1.461,   1.256e-3
1.462,   1.307e-3
1.463,   1.361e-3
1.464,   1.417e-3
1.465,   1.474e-3
1.466,   1.534e-3
1.467,   1.595e-3
1.468,   1.658e-3
1.469,   1.727e-3
1.470,   1.795e-3
1.471,   1.864e-3
1.472,   1.936e-3
1.473,   2.008e-3
1.474,   2.086e-3
1.475,   2.170e-3
1.476,   2.247e-3
1.477,   2.327e-3
1.478,   2.410e-3
1.479,   2.496e-3
1.480,   2.580e-3
1.481,   2.667e-3
1.482,   2.759e-3
1.483,   2.852e-3
1.484,   2.963e-3
1.485,   3.077e-3
1.486,   3.172e-3
1.487,   3.269e-3
1.488,   3.373e-3
1.489,   3.514e-3
1.490,   3.617e-3
1.491,   3.729e-3
1.492,   3.846e-3
1.493,   3.956e-3
1.494,   4.064e-3
1.495,   4.194e-3
1.496,   4.326e-3
1.497,   4.438e-3
1.498,   4.563e-3
1.499,   4.676e-3
1.500,   4.797e-3
1.501,   4.923e-3
1.502,   5.338e-3
1.503,   5.646e-3
1.504,   5.761e-3
1.505,   5.952e-3
1.506,   6.306e-3
1.507,   6.531e-3
1.508,   6.641e-3
1.509,   6.766e-3
1.510,   6.904e-3
1.511,   7.027e-3
1.512,   7.295e-3
1.513,   7.436e-3
1.514,   7.569e-3
1.515,   7.802e-3
1.516,   7.978e-3
1.517,   8.287e-3
1.518,   8.515e-3
1.519,   8.589e-3
1.520,   8.777e-3
1.521,   9.192e-3
1.522,   9.332e-3
1.523,   9.605e-3
1.524,   9.984e-3
1.525,   1.006e-2
1.526,   1.007e-2
1.527,   1.007e-2
1.528,   1.007e-2
1.529,   1.007e-2
1.530,   1.007e-2
1.531,   1.007e-2
1.532,   1.007e-2