File: Experimental Records and Raw Data/batch2/final500/B2_BEST_500#9_Full-266mV.txt
Jan. 18, 2023   16:53:40
Linear Sweep Voltammetry
File: d:\current work\al_oer\electrochemical test data\batch 2\500\B2_BEST_500#9_Full-266mV.txt
Data Source:  Experiment
Instrument Model:  CHI660E
Header:
Note:

Init E (V) = 1.099

Final E (V) = 1.586

Scan Rate (V/s) = 0.010
Sample Interval (V) = 0.001
Quiet Time (sec) = 2
Sensitivity (A/V) = 0.001
Comp R (ohm) = 4.9

Results:

Channel 1:

Potential/V, Current/A
1.099,   4.636e-5
1.100,   4.824e-5
1.101,   4.592e-5
1.102,   4.358e-5
1.103,   4.167e-5
1.104,   3.985e-5
1.105,   3.815e-5
1.106,   3.695e-5
1.107,   3.568e-5
1.108,   3.451e-5
1.109,   3.367e-5
1.110,   3.261e-5
1.111,   3.182e-5
1.112,   3.119e-5
1.113,   3.049e-5
1.114,   2.991e-5
1.115,   2.933e-5
1.116,   2.887e-5
1.117,   2.833e-5
1.118,   2.796e-5
1.119,   2.761e-5
1.120,   2.722e-5
1.121,   2.689e-5
1.122,   2.659e-5
1.123,   2.627e-5
1.124,   2.609e-5
1.125,   2.588e-5
1.126,   2.555e-5
1.127,   2.545e-5
1.128,   2.527e-5
1.129,   2.498e-5
1.130,   2.499e-5
1.131,   2.475e-5
1.132,   2.453e-5
1.133,   2.458e-5
1.134,   2.439e-5
1.135,   2.426e-5
1.136,   2.427e-5
1.137,   2.413e-5
1.138,   2.407e-5
1.139,   2.397e-5
1.140,   2.390e-5
1.141,   2.386e-5
1.142,   2.385e-5
1.143,   2.376e-5
1.144,   2.377e-5
1.145,   2.383e-5
1.146,   2.377e-5
1.147,   2.366e-5
1.148,   2.372e-5
1.149,   2.369e-5
1.150,   2.361e-5
1.151,   2.374e-5
1.152,   2.369e-5
1.153,   2.372e-5
1.154,   2.381e-5
1.155,   2.371e-5
1.156,   2.375e-5
1.157,   2.389e-5
1.158,   2.377e-5
1.159,   2.388e-5
1.160,   2.394e-5
1.161,   2.387e-5
1.162,   2.400e-5
1.163,   2.400e-5
1.164,   2.402e-5
1.165,   2.418e-5
1.166,   2.413e-5
1.167,   2.419e-5
1.168,   2.428e-5
1.169,   2.432e-5
1.170,   2.441e-5
1.171,   2.450e-5
1.172,   2.461e-5
1.173,   2.457e-5
1.174,   2.465e-5
1.175,   2.482e-5
1.176,   2.480e-5
1.177,   2.486e-5
1.178,   2.514e-5
1.179,   2.497e-5
1.180,   2.519e-5
1.181,   2.533e-5
1.182,   2.529e-5
1.183,   2.553e-5
1.184,   2.561e-5
1.185,   2.552e-5
1.186,   2.581e-5
1.187,   2.581e-5
1.188,   2.583e-5
1.189,   2.605e-5
1.190,   2.610e-5
1.191,   2.616e-5
1.192,   2.633e-5
1.193,   2.634e-5
1.194,   2.649e-5
1.195,   2.658e-5
1.196,   2.665e-5
1.197,   2.682e-5
1.198,   2.691e-5
1.199,   2.697e-5
1.200,   2.707e-5
1.201,   2.720e-5
1.202,   2.727e-5
1.203,   2.737e-5
1.204,   2.754e-5
1.205,   2.761e-5
1.206,   2.768e-5
1.207,   2.794e-5
1.208,   2.788e-5
1.209,   2.797e-5
1.210,   2.820e-5
1.211,   2.814e-5
1.212,   2.836e-5
1.213,   2.849e-5
1.214,   2.839e-5
1.215,   2.865e-5
1.216,   2.872e-5
1.217,   2.872e-5
1.218,   2.901e-5
1.219,   2.891e-5
1.220,   2.903e-5
1.221,   2.935e-5
1.222,   2.941e-5
1.223,   2.938e-5
1.224,   2.954e-5
1.225,   2.951e-5
1.226,   2.970e-5
1.227,   2.974e-5
1.228,   2.979e-5
1.229,   2.999e-5
1.230,   3.006e-5
1.231,   3.006e-5
1.232,   3.008e-5
1.233,   3.018e-5
1.234,   3.038e-5
1.235,   3.031e-5
1.236,   3.045e-5
1.237,   3.050e-5
1.238,   3.047e-5
1.239,   3.074e-5
1.240,   3.064e-5
1.241,   3.074e-5
1.242,   3.091e-5
1.243,   3.075e-5
1.244,   3.093e-5
1.245,   3.100e-5
1.246,   3.087e-5
1.247,   3.115e-5
1.248,   3.120e-5
1.249,   3.110e-5
1.250,   3.134e-5
1.251,   3.127e-5
1.252,   3.125e-5
1.253,   3.139e-5
1.254,   3.144e-5
1.255,   3.141e-5
1.256,   3.155e-5
1.257,   3.151e-5
1.258,   3.154e-5
1.259,   3.158e-5
1.260,   3.163e-5
1.261,   3.167e-5
1.262,   3.171e-5
1.263,   3.175e-5
1.264,   3.178e-5
1.265,   3.179e-5
1.266,   3.180e-5
1.267,   3.172e-5
1.268,   3.191e-5
1.269,   3.192e-5
1.270,   3.184e-5
1.271,   3.201e-5
1.272,   3.189e-5
1.273,   3.197e-5
1.274,   3.210e-5
1.275,   3.194e-5
1.276,   3.200e-5
1.277,   3.211e-5
1.278,   3.197e-5
1.279,   3.217e-5
1.280,   3.216e-5
1.281,   3.208e-5
1.282,   3.229e-5
1.283,   3.213e-5
1.284,   3.215e-5
1.285,   3.235e-5
1.286,   3.232e-5
1.287,   3.235e-5
1.288,   3.239e-5
1.289,   3.231e-5
1.290,   3.238e-5
1.291,   3.242e-5
1.292,   3.246e-5
1.293,   3.253e-5
1.294,   3.251e-5
1.295,   3.258e-5
1.296,   3.260e-5
1.297,   3.263e-5
1.298,   3.265e-5
1.299,   3.267e-5
1.300,   3.278e-5
1.301,   3.281e-5
1.302,   3.264e-5
1.303,   3.285e-5
1.304,   3.279e-5
1.305,   3.282e-5
1.306,   3.304e-5
1.307,   3.298e-5
1.308,   3.300e-5
1.309,   3.317e-5
1.310,   3.301e-5
1.311,   3.314e-5
1.312,   3.330e-5
1.313,   3.311e-5
1.314,   3.340e-5
1.315,   3.340e-5
1.316,   3.335e-5
1.317,   3.352e-5
1.318,   3.359e-5
1.319,   3.358e-5
1.320,   3.376e-5
1.321,   3.371e-5
1.322,   3.375e-5
1.323,   3.388e-5
1.324,   3.396e-5
1.325,   3.400e-5
1.326,   3.412e-5
1.327,   3.415e-5
1.328,   3.409e-5
1.329,   3.424e-5
1.330,   3.434e-5
1.331,   3.431e-5
1.332,   3.452e-5
1.333,   3.456e-5
1.334,   3.453e-5
1.335,   3.474e-5
1.336,   3.475e-5
1.337,   3.482e-5
1.338,   3.505e-5
1.339,   3.497e-5
1.340,   3.514e-5
1.341,   3.528e-5
1.342,   3.516e-5
1.343,   3.544e-5
1.344,   3.555e-5
1.345,   3.553e-5
1.346,   3.580e-5
1.347,   3.581e-5
1.348,   3.583e-5
1.349,   3.601e-5
1.350,   3.622e-5
1.351,   3.629e-5
1.352,   3.642e-5
1.353,   3.655e-5
1.354,   3.665e-5
1.355,   3.672e-5
1.356,   3.705e-5
1.357,   3.718e-5
1.358,   3.718e-5
1.359,   3.745e-5
1.360,   3.755e-5
1.361,   3.761e-5
1.362,   3.793e-5
1.363,   3.796e-5
1.364,   3.820e-5
1.365,   3.845e-5
1.366,   3.842e-5
1.367,   3.881e-5
1.368,   3.906e-5
1.369,   3.914e-5
1.370,   3.954e-5
1.371,   3.967e-5
1.372,   3.988e-5
1.373,   4.028e-5
1.374,   4.040e-5
1.375,   4.075e-5
1.376,   4.110e-5
1.377,   4.126e-5
1.378,   4.159e-5
1.379,   4.204e-5
1.380,   4.237e-5
1.381,   4.275e-5
1.382,   4.321e-5
1.383,   4.349e-5
1.384,   4.386e-5
1.385,   4.442e-5
1.386,   4.487e-5
1.387,   4.522e-5
1.388,   4.592e-5
1.389,   4.640e-5
1.390,   4.695e-5
1.391,   4.770e-5
1.392,   4.816e-5
1.393,   4.882e-5
1.394,   4.976e-5
1.395,   5.020e-5
1.396,   5.117e-5
1.397,   5.199e-5
1.398,   5.256e-5
1.399,   5.378e-5
1.400,   5.462e-5
1.401,   5.563e-5
1.402,   5.695e-5
1.403,   5.779e-5
1.404,   5.905e-5
1.405,   6.053e-5
1.406,   6.172e-5
1.407,   6.324e-5
1.408,   6.482e-5
1.409,   6.621e-5
1.410,   6.801e-5
1.411,   6.979e-5
1.412,   7.160e-5
1.413,   7.379e-5
1.414,   7.590e-5
1.415,   7.800e-5
1.416,   8.043e-5
1.417,   8.292e-5
1.418,   8.549e-5
1.419,   8.812e-5
1.420,   9.130e-5
1.421,   9.422e-5
1.422,   9.731e-5
1.423,   1.009e-4
1.424,   1.043e-4
1.425,   1.081e-4
1.426,   1.124e-4
1.427,   1.167e-4
1.428,   1.210e-4
1.429,   1.257e-4
1.430,   1.303e-4
1.431,   1.357e-4
1.432,   1.410e-4
1.433,   1.466e-4
1.434,   1.528e-4
1.435,   1.591e-4
1.436,   1.655e-4
1.437,   1.727e-4
1.438,   1.798e-4
1.439,   1.875e-4
1.440,   1.957e-4
1.441,   2.040e-4
1.442,   2.128e-4
1.443,   2.220e-4
1.444,   2.319e-4
1.445,   2.423e-4
1.446,   2.529e-4
1.447,   2.641e-4
1.448,   2.756e-4
1.449,   2.880e-4
1.450,   3.009e-4
1.451,   3.142e-4
1.452,   3.285e-4
1.453,   3.432e-4
1.454,   3.584e-4
1.455,   3.748e-4
1.456,   3.913e-4
1.457,   4.090e-4
1.458,   4.274e-4
1.459,   4.461e-4
1.460,   4.660e-4
1.461,   4.871e-4
1.462,   5.083e-4
1.463,   5.309e-4
1.464,   5.544e-4
1.465,   5.785e-4
1.466,   6.041e-4
1.467,   6.299e-4
1.468,   6.571e-4
1.469,   6.854e-4
1.470,   7.146e-4
1.471,   7.453e-4
1.472,   7.768e-4
1.473,   8.094e-4
1.474,   8.428e-4
1.475,   8.777e-4
1.476,   9.138e-4
1.477,   9.514e-4
1.478,   9.897e-4
1.479,   1.029e-3
1.480,   1.070e-3
1.481,   1.113e-3
1.482,   1.157e-3
1.483,   1.201e-3
1.484,   1.248e-3
1.485,   1.296e-3
1.486,   1.345e-3
1.487,   1.399e-3
1.488,   1.450e-3
1.489,   1.500e-3
1.490,   1.555e-3
1.491,   1.611e-3
1.492,   1.668e-3
1.493,   1.727e-3
1.494,   1.787e-3
1.495,   1.849e-3
1.496,   1.914e-3
1.497,   1.977e-3
1.498,   2.041e-3
1.499,   2.108e-3
1.500,   2.174e-3
1.501,   2.243e-3
1.502,   2.312e-3
1.503,   2.392e-3
1.504,   2.467e-3
1.505,   2.540e-3
1.506,   2.621e-3
1.507,   2.704e-3
1.508,   2.781e-3
1.509,   2.862e-3
1.510,   2.943e-3
1.511,   3.025e-3
1.512,   3.109e-3
1.513,   3.188e-3
1.514,   3.274e-3
1.515,   3.362e-3
1.516,   3.450e-3
1.517,   3.537e-3
1.518,   3.625e-3
1.519,   3.719e-3
1.520,   3.808e-3
1.521,   3.903e-3
1.522,   4.003e-3
1.523,   4.093e-3
1.524,   4.208e-3
1.525,   4.302e-3
1.526,   4.398e-3
1.527,   4.502e-3
1.528,   4.597e-3
1.529,   4.690e-3
1.530,   4.788e-3
1.531,   4.891e-3
1.532,   4.998e-3
1.533,   5.099e-3
1.534,   5.200e-3
1.535,   5.371e-3
1.536,   5.518e-3
1.537,   5.631e-3
1.538,   5.739e-3
1.539,   5.837e-3
1.540,   5.990e-3
1.541,   6.134e-3
1.542,   6.237e-3
1.543,   6.341e-3
1.544,   6.455e-3
1.545,   6.584e-3
1.546,   6.696e-3
1.547,   6.810e-3
1.548,   6.959e-3
1.549,   7.095e-3
1.550,   7.222e-3
1.551,   7.371e-3
1.552,   7.494e-3
1.553,   7.627e-3
1.554,   7.757e-3
1.555,   7.860e-3
1.556,   8.011e-3
1.557,   8.129e-3
1.558,   8.361e-3
1.559,   8.520e-3
1.560,   8.662e-3
1.561,   8.873e-3
1.562,   9.027e-3
1.563,   9.122e-3
1.564,   9.242e-3
1.565,   9.392e-3
1.566,   9.568e-3
1.567,   9.680e-3
1.568,   9.762e-3
1.569,   9.905e-3
1.570,   1.007e-2
1.571,   1.007e-2
1.572,   1.007e-2
1.573,   1.007e-2
1.574,   1.007e-2
1.575,   1.007e-2
1.576,   1.007e-2
1.577,   1.007e-2
1.578,   1.007e-2
1.579,   1.007e-2
1.580,   1.007e-2
1.581,   1.007e-2
1.582,   1.007e-2
1.583,   1.007e-2
1.584,   1.007e-2
1.585,   1.007e-2
1.586,   1.007e-2