File: Experimental Records and Raw Data/batch2/final500/B2_BEST_500#3_Full-293mV.txt
Jan. 18, 2023   16:31:06
Linear Sweep Voltammetry
File: d:\current work\al_oer\electrochemical test data\batch 2\500\B2_BEST_500#3_Full-293mV.txt
Data Source:  Experiment
Instrument Model:  CHI660E
Header:
Note:

Init E (V) = 1.098

Final E (V) = 1.797

Scan Rate (V/s) = 0.010
Sample Interval (V) = 0.001
Quiet Time (sec) = 2
Sensitivity (A/V) = 0.001
Comp R (ohm) = 5.1

Results:

Channel 1:

Potential/V, Current/A
1.098,   8.710e-5
1.099,   8.597e-5
1.100,   8.405e-5
1.101,   8.229e-5
1.102,   8.070e-5
1.103,   7.932e-5
1.104,   7.807e-5
1.105,   7.702e-5
1.106,   7.609e-5
1.107,   7.516e-5
1.108,   7.435e-5
1.109,   7.363e-5
1.110,   7.305e-5
1.111,   7.245e-5
1.112,   7.194e-5
1.113,   7.152e-5
1.114,   7.106e-5
1.115,   7.066e-5
1.116,   7.034e-5
1.117,   6.997e-5
1.118,   6.974e-5
1.119,   6.951e-5
1.120,   6.922e-5
1.121,   6.901e-5
1.122,   6.884e-5
1.123,   6.867e-5
1.124,   6.850e-5
1.125,   6.839e-5
1.126,   6.825e-5
1.127,   6.816e-5
1.128,   6.806e-5
1.129,   6.795e-5
1.130,   6.780e-5
1.131,   6.775e-5
1.132,   6.769e-5
1.133,   6.756e-5
1.134,   6.750e-5
1.135,   6.739e-5
1.136,   6.733e-5
1.137,   6.733e-5
1.138,   6.723e-5
1.139,   6.717e-5
1.140,   6.717e-5
1.141,   6.707e-5
1.142,   6.704e-5
1.143,   6.702e-5
1.144,   6.698e-5
1.145,   6.696e-5
1.146,   6.690e-5
1.147,   6.687e-5
1.148,   6.685e-5
1.149,   6.678e-5
1.150,   6.670e-5
1.151,   6.668e-5
1.152,   6.663e-5
1.153,   6.657e-5
1.154,   6.651e-5
1.155,   6.647e-5
1.156,   6.645e-5
1.157,   6.640e-5
1.158,   6.639e-5
1.159,   6.631e-5
1.160,   6.631e-5
1.161,   6.625e-5
1.162,   6.613e-5
1.163,   6.613e-5
1.164,   6.608e-5
1.165,   6.603e-5
1.166,   6.600e-5
1.167,   6.597e-5
1.168,   6.588e-5
1.169,   6.587e-5
1.170,   6.585e-5
1.171,   6.576e-5
1.172,   6.575e-5
1.173,   6.576e-5
1.174,   6.570e-5
1.175,   6.565e-5
1.176,   6.560e-5
1.177,   6.556e-5
1.178,   6.555e-5
1.179,   6.548e-5
1.180,   6.541e-5
1.181,   6.537e-5
1.182,   6.534e-5
1.183,   6.532e-5
1.184,   6.530e-5
1.185,   6.523e-5
1.186,   6.520e-5
1.187,   6.516e-5
1.188,   6.509e-5
1.189,   6.508e-5
1.190,   6.502e-5
1.191,   6.492e-5
1.192,   6.490e-5
1.193,   6.490e-5
1.194,   6.482e-5
1.195,   6.478e-5
1.196,   6.479e-5
1.197,   6.471e-5
1.198,   6.466e-5
1.199,   6.461e-5
1.200,   6.454e-5
1.201,   6.457e-5
1.202,   6.447e-5
1.203,   6.439e-5
1.204,   6.438e-5
1.205,   6.424e-5
1.206,   6.424e-5
1.207,   6.420e-5
1.208,   6.413e-5
1.209,   6.406e-5
1.210,   6.402e-5
1.211,   6.390e-5
1.212,   6.392e-5
1.213,   6.384e-5
1.214,   6.376e-5
1.215,   6.376e-5
1.216,   6.365e-5
1.217,   6.358e-5
1.218,   6.351e-5
1.219,   6.341e-5
1.220,   6.337e-5
1.221,   6.340e-5
1.222,   6.332e-5
1.223,   6.324e-5
1.224,   6.319e-5
1.225,   6.311e-5
1.226,   6.300e-5
1.227,   6.295e-5
1.228,   6.289e-5
1.229,   6.272e-5
1.230,   6.269e-5
1.231,   6.260e-5
1.232,   6.253e-5
1.233,   6.246e-5
1.234,   6.235e-5
1.235,   6.224e-5
1.236,   6.217e-5
1.237,   6.205e-5
1.238,   6.195e-5
1.239,   6.188e-5
1.240,   6.174e-5
1.241,   6.170e-5
1.242,   6.159e-5
1.243,   6.148e-5
1.244,   6.140e-5
1.245,   6.124e-5
1.246,   6.121e-5
1.247,   6.108e-5
1.248,   6.098e-5
1.249,   6.088e-5
1.250,   6.075e-5
1.251,   6.064e-5
1.252,   6.055e-5
1.253,   6.044e-5
1.254,   6.033e-5
1.255,   6.017e-5
1.256,   6.008e-5
1.257,   5.996e-5
1.258,   5.981e-5
1.259,   5.972e-5
1.260,   5.962e-5
1.261,   5.943e-5
1.262,   5.936e-5
1.263,   5.921e-5
1.264,   5.909e-5
1.265,   5.897e-5
1.266,   5.879e-5
1.267,   5.867e-5
1.268,   5.859e-5
1.269,   5.843e-5
1.270,   5.830e-5
1.271,   5.819e-5
1.272,   5.808e-5
1.273,   5.800e-5
1.274,   5.780e-5
1.275,   5.768e-5
1.276,   5.754e-5
1.277,   5.744e-5
1.278,   5.730e-5
1.279,   5.717e-5
1.280,   5.702e-5
1.281,   5.691e-5
1.282,   5.676e-5
1.283,   5.664e-5
1.284,   5.650e-5
1.285,   5.639e-5
1.286,   5.627e-5
1.287,   5.610e-5
1.288,   5.600e-5
1.289,   5.598e-5
1.290,   5.579e-5
1.291,   5.571e-5
1.292,   5.566e-5
1.293,   5.550e-5
1.294,   5.541e-5
1.295,   5.529e-5
1.296,   5.515e-5
1.297,   5.514e-5
1.298,   5.500e-5
1.299,   5.485e-5
1.300,   5.480e-5
1.301,   5.465e-5
1.302,   5.454e-5
1.303,   5.445e-5
1.304,   5.430e-5
1.305,   5.415e-5
1.306,   5.406e-5
1.307,   5.392e-5
1.308,   5.382e-5
1.309,   5.368e-5
1.310,   5.357e-5
1.311,   5.347e-5
1.312,   5.335e-5
1.313,   5.329e-5
1.314,   5.311e-5
1.315,   5.303e-5
1.316,   5.294e-5
1.317,   5.281e-5
1.318,   5.272e-5
1.319,   5.260e-5
1.320,   5.247e-5
1.321,   5.239e-5
1.322,   5.224e-5
1.323,   5.213e-5
1.324,   5.199e-5
1.325,   5.182e-5
1.326,   5.177e-5
1.327,   5.157e-5
1.328,   5.139e-5
1.329,   5.131e-5
1.330,   5.122e-5
1.331,   5.105e-5
1.332,   5.096e-5
1.333,   5.081e-5
1.334,   5.069e-5
1.335,   5.051e-5
1.336,   5.041e-5
1.337,   5.031e-5
1.338,   5.016e-5
1.339,   4.997e-5
1.340,   4.988e-5
1.341,   4.980e-5
1.342,   4.967e-5
1.343,   4.956e-5
1.344,   4.947e-5
1.345,   4.936e-5
1.346,   4.921e-5
1.347,   4.917e-5
1.348,   4.905e-5
1.349,   4.887e-5
1.350,   4.875e-5
1.351,   4.865e-5
1.352,   4.855e-5
1.353,   4.850e-5
1.354,   4.831e-5
1.355,   4.826e-5
1.356,   4.830e-5
1.357,   4.815e-5
1.358,   4.814e-5
1.359,   4.806e-5
1.360,   4.793e-5
1.361,   4.786e-5
1.362,   4.782e-5
1.363,   4.772e-5
1.364,   4.773e-5
1.365,   4.778e-5
1.366,   4.776e-5
1.367,   4.772e-5
1.368,   4.775e-5
1.369,   4.781e-5
1.370,   4.787e-5
1.371,   4.796e-5
1.372,   4.807e-5
1.373,   4.814e-5
1.374,   4.832e-5
1.375,   4.849e-5
1.376,   4.867e-5
1.377,   4.893e-5
1.378,   4.911e-5
1.379,   4.944e-5
1.380,   4.973e-5
1.381,   5.002e-5
1.382,   5.041e-5
1.383,   5.078e-5
1.384,   5.116e-5
1.385,   5.164e-5
1.386,   5.207e-5
1.387,   5.253e-5
1.388,   5.310e-5
1.389,   5.360e-5
1.390,   5.421e-5
1.391,   5.485e-5
1.392,   5.544e-5
1.393,   5.611e-5
1.394,   5.679e-5
1.395,   5.744e-5
1.396,   5.818e-5
1.397,   5.890e-5
1.398,   5.962e-5
1.399,   6.048e-5
1.400,   6.138e-5
1.401,   6.224e-5
1.402,   6.318e-5
1.403,   6.409e-5
1.404,   6.502e-5
1.405,   6.604e-5
1.406,   6.709e-5
1.407,   6.817e-5
1.408,   6.932e-5
1.409,   7.051e-5
1.410,   7.173e-5
1.411,   7.310e-5
1.412,   7.438e-5
1.413,   7.577e-5
1.414,   7.726e-5
1.415,   7.873e-5
1.416,   8.025e-5
1.417,   8.190e-5
1.418,   8.357e-5
1.419,   8.541e-5
1.420,   8.733e-5
1.421,   8.914e-5
1.422,   9.114e-5
1.423,   9.326e-5
1.424,   9.543e-5
1.425,   9.776e-5
1.426,   1.002e-4
1.427,   1.027e-4
1.428,   1.052e-4
1.429,   1.079e-4
1.430,   1.108e-4
1.431,   1.137e-4
1.432,   1.168e-4
1.433,   1.200e-4
1.434,   1.233e-4
1.435,   1.268e-4
1.436,   1.304e-4
1.437,   1.342e-4
1.438,   1.382e-4
1.439,   1.423e-4
1.440,   1.466e-4
1.441,   1.511e-4
1.442,   1.557e-4
1.443,   1.606e-4
1.444,   1.657e-4
1.445,   1.709e-4
1.446,   1.764e-4
1.447,   1.822e-4
1.448,   1.881e-4
1.449,   1.943e-4
1.450,   2.007e-4
1.451,   2.074e-4
1.452,   2.144e-4
1.453,   2.216e-4
1.454,   2.291e-4
1.455,   2.371e-4
1.456,   2.452e-4
1.457,   2.536e-4
1.458,   2.624e-4
1.459,   2.715e-4
1.460,   2.810e-4
1.461,   2.908e-4
1.462,   3.010e-4
1.463,   3.115e-4
1.464,   3.225e-4
1.465,   3.339e-4
1.466,   3.456e-4
1.467,   3.579e-4
1.468,   3.704e-4
1.469,   3.836e-4
1.470,   3.974e-4
1.471,   4.114e-4
1.472,   4.261e-4
1.473,   4.412e-4
1.474,   4.567e-4
1.475,   4.729e-4
1.476,   4.894e-4
1.477,   5.066e-4
1.478,   5.245e-4
1.479,   5.426e-4
1.480,   5.612e-4
1.481,   5.806e-4
1.482,   6.006e-4
1.483,   6.213e-4
1.484,   6.429e-4
1.485,   6.652e-4
1.486,   6.879e-4
1.487,   7.111e-4
1.488,   7.349e-4
1.489,   7.592e-4
1.490,   7.842e-4
1.491,   8.103e-4
1.492,   8.364e-4
1.493,   8.635e-4
1.494,   8.914e-4
1.495,   9.197e-4
1.496,   9.487e-4
1.497,   9.784e-4
1.498,   1.008e-3
1.499,   1.039e-3
1.500,   1.070e-3
1.501,   1.102e-3
1.502,   1.135e-3
1.503,   1.168e-3
1.504,   1.201e-3
1.505,   1.235e-3
1.506,   1.270e-3
1.507,   1.305e-3
1.508,   1.342e-3
1.509,   1.379e-3
1.510,   1.417e-3
1.511,   1.455e-3
1.512,   1.493e-3
1.513,   1.532e-3
1.514,   1.571e-3
1.515,   1.611e-3
1.516,   1.650e-3
1.517,   1.690e-3
1.518,   1.730e-3
1.519,   1.771e-3
1.520,   1.812e-3
1.521,   1.853e-3
1.522,   1.894e-3
1.523,   1.935e-3
1.524,   1.977e-3
1.525,   2.020e-3
1.526,   2.063e-3
1.527,   2.107e-3
1.528,   2.150e-3
1.529,   2.193e-3
1.530,   2.236e-3
1.531,   2.281e-3
1.532,   2.325e-3
1.533,   2.371e-3
1.534,   2.437e-3
1.535,   2.493e-3
1.536,   2.539e-3
1.537,   2.583e-3
1.538,   2.627e-3
1.539,   2.674e-3
1.540,   2.719e-3
1.541,   2.764e-3
1.542,   2.808e-3
1.543,   2.854e-3
1.544,   2.900e-3
1.545,   2.944e-3
1.546,   2.989e-3
1.547,   3.036e-3
1.548,   3.082e-3
1.549,   3.129e-3
1.550,   3.174e-3
1.551,   3.220e-3
1.552,   3.267e-3
1.553,   3.314e-3
1.554,   3.363e-3
1.555,   3.414e-3
1.556,   3.459e-3
1.557,   3.504e-3
1.558,   3.549e-3
1.559,   3.594e-3
1.560,   3.641e-3
1.561,   3.688e-3
1.562,   3.744e-3
1.563,   3.794e-3
1.564,   3.842e-3
1.565,   3.890e-3
1.566,   3.940e-3
1.567,   3.992e-3
1.568,   4.038e-3
1.569,   4.082e-3
1.570,   4.128e-3
1.571,   4.177e-3
1.572,   4.223e-3
1.573,   4.271e-3
1.574,   4.324e-3
1.575,   4.369e-3
1.576,   4.415e-3
1.577,   4.465e-3
1.578,   4.509e-3
1.579,   4.556e-3
1.580,   4.609e-3
1.581,   4.677e-3
1.582,   4.738e-3
1.583,   4.783e-3
1.584,   4.825e-3
1.585,   4.865e-3
1.586,   4.908e-3
1.587,   4.953e-3
1.588,   5.003e-3
1.589,   5.060e-3
1.590,   5.108e-3
1.591,   5.150e-3
1.592,   5.196e-3
1.593,   5.265e-3
1.594,   5.323e-3
1.595,   5.366e-3
1.596,   5.404e-3
1.597,   5.446e-3
1.598,   5.498e-3
1.599,   5.543e-3
1.600,   5.624e-3
1.601,   5.734e-3
1.602,   5.791e-3
1.603,   5.834e-3
1.604,   5.875e-3
1.605,   5.945e-3
1.606,   5.995e-3
1.607,   6.041e-3
1.608,   6.080e-3
1.609,   6.126e-3
1.610,   6.173e-3
1.611,   6.208e-3
1.612,   6.245e-3
1.613,   6.277e-3
1.614,   6.332e-3
1.615,   6.383e-3
1.616,   6.418e-3
1.617,   6.447e-3
1.618,   6.475e-3
1.619,   6.517e-3
1.620,   6.557e-3
1.621,   6.587e-3
1.622,   6.623e-3
1.623,   6.665e-3
1.624,   6.700e-3
1.625,   6.737e-3
1.626,   6.772e-3
1.627,   6.824e-3
1.628,   6.851e-3
1.629,   6.889e-3
1.630,   6.926e-3
1.631,   6.960e-3
1.632,   6.991e-3
1.633,   7.013e-3
1.634,   7.041e-3
1.635,   7.076e-3
1.636,   7.135e-3
1.637,   7.180e-3
1.638,   7.203e-3
1.639,   7.228e-3
1.640,   7.265e-3
1.641,   7.297e-3
1.642,   7.322e-3
1.643,   7.349e-3
1.644,   7.393e-3
1.645,   7.499e-3
1.646,   7.536e-3
1.647,   7.550e-3
1.648,   7.575e-3
1.649,   7.591e-3
1.650,   7.618e-3
1.651,   7.640e-3
1.652,   7.676e-3
1.653,   7.692e-3
1.654,   7.707e-3
1.655,   7.729e-3
1.656,   7.752e-3
1.657,   7.770e-3
1.658,   7.792e-3
1.659,   7.832e-3
1.660,   7.876e-3
1.661,   7.922e-3
1.662,   7.931e-3
1.663,   7.959e-3
1.664,   7.983e-3
1.665,   7.995e-3
1.666,   8.012e-3
1.667,   8.043e-3
1.668,   8.069e-3
1.669,   8.087e-3
1.670,   8.095e-3
1.671,   8.112e-3
1.672,   8.119e-3
1.673,   8.156e-3
1.674,   8.168e-3
1.675,   8.207e-3
1.676,   8.237e-3
1.677,   8.246e-3
1.678,   8.271e-3
1.679,   8.314e-3
1.680,   8.334e-3
1.681,   8.336e-3
1.682,   8.342e-3
1.683,   8.354e-3
1.684,   8.390e-3
1.685,   8.460e-3
1.686,   8.477e-3
1.687,   8.475e-3
1.688,   8.484e-3
1.689,   8.504e-3
1.690,   8.526e-3
1.691,   8.516e-3
1.692,   8.536e-3
1.693,   8.542e-3
1.694,   8.561e-3
1.695,   8.570e-3
1.696,   8.598e-3
1.697,   8.593e-3
1.698,   8.578e-3
1.699,   8.576e-3
1.700,   8.581e-3
1.701,   8.588e-3
1.702,   8.585e-3
1.703,   8.625e-3
1.704,   8.634e-3
1.705,   8.628e-3
1.706,   8.632e-3
1.707,   8.623e-3
1.708,   8.621e-3
1.709,   8.639e-3
1.710,   8.629e-3
1.711,   8.654e-3
1.712,   8.645e-3
1.713,   8.648e-3
1.714,   8.690e-3
1.715,   8.709e-3
1.716,   8.686e-3
1.717,   8.669e-3
1.718,   8.671e-3
1.719,   8.661e-3
1.720,   8.641e-3
1.721,   8.663e-3
1.722,   8.681e-3
1.723,   8.686e-3
1.724,   8.670e-3
1.725,   8.679e-3
1.726,   8.663e-3
1.727,   8.636e-3
1.728,   8.625e-3
1.729,   8.613e-3
1.730,   8.634e-3
1.731,   8.656e-3
1.732,   8.641e-3
1.733,   8.645e-3
1.734,   8.641e-3
1.735,   8.646e-3
1.736,   8.619e-3
1.737,   8.593e-3
1.738,   8.577e-3
1.739,   8.581e-3
1.740,   8.570e-3
1.741,   8.547e-3
1.742,   8.522e-3
1.743,   8.521e-3
1.744,   8.513e-3
1.745,   8.493e-3
1.746,   8.488e-3
1.747,   8.475e-3
1.748,   8.461e-3
1.749,   8.466e-3
1.750,   8.461e-3
1.751,   8.478e-3
1.752,   8.466e-3
1.753,   8.446e-3
1.754,   8.423e-3
1.755,   8.406e-3
1.756,   8.402e-3
1.757,   8.386e-3
1.758,   8.369e-3
1.759,   8.352e-3
1.760,   8.325e-3
1.761,   8.298e-3
1.762,   8.275e-3
1.763,   8.254e-3
1.764,   8.254e-3
1.765,   8.259e-3
1.766,   8.256e-3
1.767,   8.218e-3
1.768,   8.205e-3
1.769,   8.191e-3
1.770,   8.157e-3
1.771,   8.139e-3
1.772,   8.123e-3
1.773,   8.103e-3
1.774,   8.123e-3
1.775,   8.096e-3
1.776,   8.065e-3
1.777,   8.053e-3
1.778,   8.037e-3
1.779,   8.014e-3
1.780,   7.995e-3
1.781,   7.979e-3
1.782,   7.961e-3
1.783,   7.941e-3
1.784,   7.945e-3
1.785,   7.921e-3
1.786,   7.905e-3
1.787,   7.871e-3
1.788,   7.826e-3
1.789,   7.838e-3
1.790,   7.823e-3
1.791,   7.799e-3
1.792,   7.764e-3
1.793,   7.738e-3
1.794,   7.731e-3
1.795,   7.710e-3
1.796,   7.690e-3
1.797,   7.666e-3