File: Experimental Records and Raw Data/batch2/final500/B2_BEST_500#11_Full-301mV.txt
Jan. 18, 2023   17:13:15
Linear Sweep Voltammetry
File: d:\current work\al_oer\electrochemical test data\batch 2\500\B2_BEST_500#11_Full-301mV.txt
Data Source:  Experiment
Instrument Model:  CHI660E
Header:
Note:

Init E (V) = 1.099

Final E (V) = 1.668

Scan Rate (V/s) = 0.010
Sample Interval (V) = 0.001
Quiet Time (sec) = 2
Sensitivity (A/V) = 0.001
Comp R (ohm) = 4.9

Results:

Channel 1:

Potential/V, Current/A
1.099,   7.962e-5
1.100,   7.595e-5
1.101,   7.069e-5
1.102,   6.579e-5
1.103,   6.160e-5
1.104,   5.784e-5
1.105,   5.470e-5
1.106,   5.181e-5
1.107,   4.922e-5
1.108,   4.695e-5
1.109,   4.497e-5
1.110,   4.309e-5
1.111,   4.155e-5
1.112,   4.009e-5
1.113,   3.874e-5
1.114,   3.766e-5
1.115,   3.651e-5
1.116,   3.547e-5
1.117,   3.462e-5
1.118,   3.374e-5
1.119,   3.301e-5
1.120,   3.237e-5
1.121,   3.171e-5
1.122,   3.104e-5
1.123,   3.049e-5
1.124,   3.003e-5
1.125,   2.953e-5
1.126,   2.909e-5
1.127,   2.863e-5
1.128,   2.830e-5
1.129,   2.797e-5
1.130,   2.766e-5
1.131,   2.727e-5
1.132,   2.705e-5
1.133,   2.678e-5
1.134,   2.651e-5
1.135,   2.631e-5
1.136,   2.607e-5
1.137,   2.582e-5
1.138,   2.570e-5
1.139,   2.549e-5
1.140,   2.537e-5
1.141,   2.523e-5
1.142,   2.497e-5
1.143,   2.490e-5
1.144,   2.481e-5
1.145,   2.466e-5
1.146,   2.456e-5
1.147,   2.447e-5
1.148,   2.431e-5
1.149,   2.430e-5
1.150,   2.416e-5
1.151,   2.406e-5
1.152,   2.404e-5
1.153,   2.398e-5
1.154,   2.389e-5
1.155,   2.383e-5
1.156,   2.384e-5
1.157,   2.377e-5
1.158,   2.373e-5
1.159,   2.373e-5
1.160,   2.367e-5
1.161,   2.363e-5
1.162,   2.365e-5
1.163,   2.353e-5
1.164,   2.358e-5
1.165,   2.359e-5
1.166,   2.348e-5
1.167,   2.356e-5
1.168,   2.353e-5
1.169,   2.348e-5
1.170,   2.356e-5
1.171,   2.358e-5
1.172,   2.351e-5
1.173,   2.359e-5
1.174,   2.350e-5
1.175,   2.354e-5
1.176,   2.359e-5
1.177,   2.353e-5
1.178,   2.360e-5
1.179,   2.361e-5
1.180,   2.361e-5
1.181,   2.365e-5
1.182,   2.361e-5
1.183,   2.368e-5
1.184,   2.371e-5
1.185,   2.374e-5
1.186,   2.380e-5
1.187,   2.374e-5
1.188,   2.383e-5
1.189,   2.385e-5
1.190,   2.383e-5
1.191,   2.396e-5
1.192,   2.389e-5
1.193,   2.386e-5
1.194,   2.402e-5
1.195,   2.396e-5
1.196,   2.407e-5
1.197,   2.421e-5
1.198,   2.410e-5
1.199,   2.418e-5
1.200,   2.425e-5
1.201,   2.417e-5
1.202,   2.432e-5
1.203,   2.438e-5
1.204,   2.436e-5
1.205,   2.448e-5
1.206,   2.445e-5
1.207,   2.447e-5
1.208,   2.458e-5
1.209,   2.466e-5
1.210,   2.470e-5
1.211,   2.476e-5
1.212,   2.477e-5
1.213,   2.481e-5
1.214,   2.486e-5
1.215,   2.497e-5
1.216,   2.493e-5
1.217,   2.500e-5
1.218,   2.515e-5
1.219,   2.506e-5
1.220,   2.521e-5
1.221,   2.528e-5
1.222,   2.527e-5
1.223,   2.542e-5
1.224,   2.540e-5
1.225,   2.534e-5
1.226,   2.550e-5
1.227,   2.552e-5
1.228,   2.559e-5
1.229,   2.573e-5
1.230,   2.569e-5
1.231,   2.576e-5
1.232,   2.585e-5
1.233,   2.588e-5
1.234,   2.591e-5
1.235,   2.602e-5
1.236,   2.604e-5
1.237,   2.601e-5
1.238,   2.614e-5
1.239,   2.621e-5
1.240,   2.620e-5
1.241,   2.634e-5
1.242,   2.633e-5
1.243,   2.632e-5
1.244,   2.649e-5
1.245,   2.647e-5
1.246,   2.648e-5
1.247,   2.663e-5
1.248,   2.659e-5
1.249,   2.668e-5
1.250,   2.678e-5
1.251,   2.671e-5
1.252,   2.684e-5
1.253,   2.697e-5
1.254,   2.689e-5
1.255,   2.703e-5
1.256,   2.704e-5
1.257,   2.705e-5
1.258,   2.719e-5
1.259,   2.717e-5
1.260,   2.722e-5
1.261,   2.736e-5
1.262,   2.733e-5
1.263,   2.738e-5
1.264,   2.745e-5
1.265,   2.747e-5
1.266,   2.754e-5
1.267,   2.760e-5
1.268,   2.759e-5
1.269,   2.770e-5
1.270,   2.769e-5
1.271,   2.778e-5
1.272,   2.784e-5
1.273,   2.795e-5
1.274,   2.797e-5
1.275,   2.796e-5
1.276,   2.804e-5
1.277,   2.805e-5
1.278,   2.809e-5
1.279,   2.825e-5
1.280,   2.821e-5
1.281,   2.835e-5
1.282,   2.842e-5
1.283,   2.833e-5
1.284,   2.844e-5
1.285,   2.845e-5
1.286,   2.848e-5
1.287,   2.868e-5
1.288,   2.866e-5
1.289,   2.866e-5
1.290,   2.884e-5
1.291,   2.876e-5
1.292,   2.888e-5
1.293,   2.900e-5
1.294,   2.894e-5
1.295,   2.904e-5
1.296,   2.915e-5
1.297,   2.907e-5
1.298,   2.926e-5
1.299,   2.934e-5
1.300,   2.931e-5
1.301,   2.945e-5
1.302,   2.946e-5
1.303,   2.946e-5
1.304,   2.957e-5
1.305,   2.966e-5
1.306,   2.972e-5
1.307,   2.983e-5
1.308,   2.989e-5
1.309,   2.995e-5
1.310,   3.006e-5
1.311,   3.015e-5
1.312,   3.022e-5
1.313,   3.032e-5
1.314,   3.038e-5
1.315,   3.041e-5
1.316,   3.058e-5
1.317,   3.064e-5
1.318,   3.063e-5
1.319,   3.083e-5
1.320,   3.087e-5
1.321,   3.091e-5
1.322,   3.116e-5
1.323,   3.108e-5
1.324,   3.127e-5
1.325,   3.143e-5
1.326,   3.149e-5
1.327,   3.157e-5
1.328,   3.171e-5
1.329,   3.177e-5
1.330,   3.188e-5
1.331,   3.198e-5
1.332,   3.211e-5
1.333,   3.226e-5
1.334,   3.235e-5
1.335,   3.249e-5
1.336,   3.261e-5
1.337,   3.279e-5
1.338,   3.290e-5
1.339,   3.292e-5
1.340,   3.318e-5
1.341,   3.327e-5
1.342,   3.344e-5
1.343,   3.367e-5
1.344,   3.373e-5
1.345,   3.390e-5
1.346,   3.414e-5
1.347,   3.413e-5
1.348,   3.440e-5
1.349,   3.461e-5
1.350,   3.468e-5
1.351,   3.493e-5
1.352,   3.509e-5
1.353,   3.519e-5
1.354,   3.545e-5
1.355,   3.560e-5
1.356,   3.572e-5
1.357,   3.605e-5
1.358,   3.614e-5
1.359,   3.636e-5
1.360,   3.656e-5
1.361,   3.681e-5
1.362,   3.700e-5
1.363,   3.723e-5
1.364,   3.744e-5
1.365,   3.762e-5
1.366,   3.785e-5
1.367,   3.811e-5
1.368,   3.829e-5
1.369,   3.860e-5
1.370,   3.892e-5
1.371,   3.912e-5
1.372,   3.941e-5
1.373,   3.965e-5
1.374,   3.980e-5
1.375,   4.024e-5
1.376,   4.042e-5
1.377,   4.071e-5
1.378,   4.111e-5
1.379,   4.128e-5
1.380,   4.157e-5
1.381,   4.199e-5
1.382,   4.215e-5
1.383,   4.256e-5
1.384,   4.300e-5
1.385,   4.319e-5
1.386,   4.366e-5
1.387,   4.395e-5
1.388,   4.426e-5
1.389,   4.471e-5
1.390,   4.505e-5
1.391,   4.540e-5
1.392,   4.588e-5
1.393,   4.629e-5
1.394,   4.675e-5
1.395,   4.714e-5
1.396,   4.764e-5
1.397,   4.810e-5
1.398,   4.861e-5
1.399,   4.915e-5
1.400,   4.958e-5
1.401,   5.019e-5
1.402,   5.088e-5
1.403,   5.122e-5
1.404,   5.195e-5
1.405,   5.254e-5
1.406,   5.306e-5
1.407,   5.397e-5
1.408,   5.467e-5
1.409,   5.526e-5
1.410,   5.622e-5
1.411,   5.684e-5
1.412,   5.776e-5
1.413,   5.863e-5
1.414,   5.950e-5
1.415,   6.045e-5
1.416,   6.156e-5
1.417,   6.238e-5
1.418,   6.367e-5
1.419,   6.480e-5
1.420,   6.603e-5
1.421,   6.718e-5
1.422,   6.856e-5
1.423,   6.980e-5
1.424,   7.129e-5
1.425,   7.284e-5
1.426,   7.453e-5
1.427,   7.624e-5
1.428,   7.799e-5
1.429,   7.983e-5
1.430,   8.161e-5
1.431,   8.377e-5
1.432,   8.565e-5
1.433,   8.784e-5
1.434,   9.030e-5
1.435,   9.266e-5
1.436,   9.525e-5
1.437,   9.810e-5
1.438,   1.006e-4
1.439,   1.038e-4
1.440,   1.069e-4
1.441,   1.099e-4
1.442,   1.135e-4
1.443,   1.170e-4
1.444,   1.207e-4
1.445,   1.246e-4
1.446,   1.286e-4
1.447,   1.328e-4
1.448,   1.371e-4
1.449,   1.418e-4
1.450,   1.464e-4
1.451,   1.515e-4
1.452,   1.568e-4
1.453,   1.622e-4
1.454,   1.677e-4
1.455,   1.738e-4
1.456,   1.799e-4
1.457,   1.865e-4
1.458,   1.932e-4
1.459,   2.000e-4
1.460,   2.076e-4
1.461,   2.149e-4
1.462,   2.229e-4
1.463,   2.310e-4
1.464,   2.396e-4
1.465,   2.482e-4
1.466,   2.578e-4
1.467,   2.672e-4
1.468,   2.770e-4
1.469,   2.873e-4
1.470,   2.977e-4
1.471,   3.089e-4
1.472,   3.205e-4
1.473,   3.324e-4
1.474,   3.441e-4
1.475,   3.566e-4
1.476,   3.691e-4
1.477,   3.831e-4
1.478,   3.966e-4
1.479,   4.114e-4
1.480,   4.262e-4
1.481,   4.415e-4
1.482,   4.573e-4
1.483,   4.735e-4
1.484,   4.905e-4
1.485,   5.073e-4
1.486,   5.254e-4
1.487,   5.436e-4
1.488,   5.627e-4
1.489,   5.823e-4
1.490,   6.020e-4
1.491,   6.230e-4
1.492,   6.436e-4
1.493,   6.660e-4
1.494,   6.878e-4
1.495,   7.119e-4
1.496,   7.341e-4
1.497,   7.578e-4
1.498,   7.832e-4
1.499,   8.074e-4
1.500,   8.332e-4
1.501,   8.588e-4
1.502,   8.858e-4
1.503,   9.124e-4
1.504,   9.410e-4
1.505,   9.684e-4
1.506,   9.978e-4
1.507,   1.028e-3
1.508,   1.059e-3
1.509,   1.091e-3
1.510,   1.122e-3
1.511,   1.154e-3
1.512,   1.185e-3
1.513,   1.219e-3
1.514,   1.254e-3
1.515,   1.286e-3
1.516,   1.323e-3
1.517,   1.357e-3
1.518,   1.394e-3
1.519,   1.432e-3
1.520,   1.467e-3
1.521,   1.506e-3
1.522,   1.544e-3
1.523,   1.584e-3
1.524,   1.623e-3
1.525,   1.664e-3
1.526,   1.703e-3
1.527,   1.744e-3
1.528,   1.783e-3
1.529,   1.824e-3
1.530,   1.869e-3
1.531,   1.911e-3
1.532,   1.957e-3
1.533,   2.000e-3
1.534,   2.043e-3
1.535,   2.089e-3
1.536,   2.141e-3
1.537,   2.185e-3
1.538,   2.234e-3
1.539,   2.285e-3
1.540,   2.335e-3
1.541,   2.381e-3
1.542,   2.432e-3
1.543,   2.479e-3
1.544,   2.529e-3
1.545,   2.594e-3
1.546,   2.648e-3
1.547,   2.696e-3
1.548,   2.748e-3
1.549,   2.803e-3
1.550,   2.861e-3
1.551,   2.911e-3
1.552,   2.959e-3
1.553,   3.008e-3
1.554,   3.064e-3
1.555,   3.125e-3
1.556,   3.181e-3
1.557,   3.242e-3
1.558,   3.295e-3
1.559,   3.361e-3
1.560,   3.454e-3
1.561,   3.521e-3
1.562,   3.576e-3
1.563,   3.628e-3
1.564,   3.687e-3
1.565,   3.748e-3
1.566,   3.811e-3
1.567,   3.890e-3
1.568,   4.008e-3
1.569,   4.081e-3
1.570,   4.140e-3
1.571,   4.200e-3
1.572,   4.258e-3
1.573,   4.315e-3
1.574,   4.371e-3
1.575,   4.434e-3
1.576,   4.500e-3
1.577,   4.588e-3
1.578,   4.650e-3
1.579,   4.700e-3
1.580,   4.772e-3
1.581,   4.897e-3
1.582,   5.020e-3
1.583,   5.092e-3
1.584,   5.143e-3
1.585,   5.203e-3
1.586,   5.287e-3
1.587,   5.350e-3
1.588,   5.448e-3
1.589,   5.559e-3
1.590,   5.634e-3
1.591,   5.673e-3
1.592,   5.743e-3
1.593,   5.821e-3
1.594,   5.930e-3
1.595,   6.027e-3
1.596,   6.105e-3
1.597,   6.235e-3
1.598,   6.326e-3
1.599,   6.381e-3
1.600,   6.483e-3
1.601,   6.575e-3
1.602,   6.648e-3
1.603,   6.697e-3
1.604,   6.820e-3
1.605,   6.883e-3
1.606,   6.976e-3
1.607,   7.049e-3
1.608,   7.126e-3
1.609,   7.233e-3
1.610,   7.347e-3
1.611,   7.478e-3
1.612,   7.564e-3
1.613,   7.645e-3
1.614,   7.728e-3
1.615,   7.845e-3
1.616,   7.946e-3
1.617,   8.025e-3
1.618,   8.114e-3
1.619,   8.260e-3
1.620,   8.355e-3
1.621,   8.407e-3
1.622,   8.499e-3
1.623,   8.626e-3
1.624,   8.689e-3
1.625,   8.782e-3
1.626,   8.911e-3
1.627,   9.047e-3
1.628,   9.164e-3
1.629,   9.275e-3
1.630,   9.387e-3
1.631,   9.468e-3
1.632,   9.577e-3
1.633,   9.670e-3
1.634,   9.833e-3
1.635,   9.899e-3
1.636,   9.966e-3
1.637,   1.006e-2
1.638,   1.007e-2
1.639,   1.007e-2
1.640,   1.007e-2
1.641,   1.007e-2
1.642,   1.007e-2
1.643,   1.007e-2
1.644,   1.007e-2
1.645,   1.007e-2
1.646,   1.007e-2
1.647,   1.007e-2
1.648,   1.007e-2
1.649,   1.007e-2
1.650,   1.007e-2
1.651,   1.007e-2
1.652,   1.007e-2
1.653,   1.007e-2
1.654,   1.007e-2
1.655,   1.007e-2
1.656,   1.007e-2
1.657,   1.007e-2
1.658,   1.007e-2
1.659,   1.007e-2
1.660,   1.007e-2
1.661,   1.007e-2
1.662,   1.007e-2
1.663,   1.007e-2
1.664,   1.007e-2
1.665,   1.007e-2
1.666,   1.007e-2
1.667,   1.007e-2
1.668,   1.007e-2