File: Experimental Records and Raw Data/batch2/final500/B2_BEST_500#10_High_Quality-248mV.txt
Jan. 18, 2023   15:27:19
Linear Sweep Voltammetry
File: d:\current work\al_oer\electrochemical test data\batch 2\500\B2_BEST_500#10_High_Quality-248mV.txt
Data Source:  Experiment
Instrument Model:  CHI660E
Header:
Note:

Init E (V) = 1.100

Final E (V) = 1.543

Scan Rate (V/s) = 0.010
Sample Interval (V) = 0.001
Quiet Time (sec) = 2
Sensitivity (A/V) = 0.001
Comp R (ohm) = 4.9

Results:

Channel 1:

Potential/V, Current/A
1.100,   1.520e-4
1.101,   1.494e-4
1.102,   1.416e-4
1.103,   1.338e-4
1.104,   1.271e-4
1.105,   1.208e-4
1.106,   1.153e-4
1.107,   1.104e-4
1.108,   1.059e-4
1.109,   1.018e-4
1.110,   9.835e-5
1.111,   9.492e-5
1.112,   9.207e-5
1.113,   8.940e-5
1.114,   8.680e-5
1.115,   8.468e-5
1.116,   8.255e-5
1.117,   8.059e-5
1.118,   7.884e-5
1.119,   7.713e-5
1.120,   7.560e-5
1.121,   7.420e-5
1.122,   7.276e-5
1.123,   7.148e-5
1.124,   7.026e-5
1.125,   6.920e-5
1.126,   6.819e-5
1.127,   6.724e-5
1.128,   6.636e-5
1.129,   6.536e-5
1.130,   6.461e-5
1.131,   6.396e-5
1.132,   6.308e-5
1.133,   6.254e-5
1.134,   6.193e-5
1.135,   6.119e-5
1.136,   6.085e-5
1.137,   6.019e-5
1.138,   5.964e-5
1.139,   5.929e-5
1.140,   5.866e-5
1.141,   5.825e-5
1.142,   5.796e-5
1.143,   5.742e-5
1.144,   5.714e-5
1.145,   5.686e-5
1.146,   5.643e-5
1.147,   5.618e-5
1.148,   5.594e-5
1.149,   5.562e-5
1.150,   5.542e-5
1.151,   5.513e-5
1.152,   5.490e-5
1.153,   5.468e-5
1.154,   5.453e-5
1.155,   5.435e-5
1.156,   5.404e-5
1.157,   5.396e-5
1.158,   5.376e-5
1.159,   5.358e-5
1.160,   5.353e-5
1.161,   5.333e-5
1.162,   5.313e-5
1.163,   5.316e-5
1.164,   5.291e-5
1.165,   5.281e-5
1.166,   5.287e-5
1.167,   5.271e-5
1.168,   5.261e-5
1.169,   5.260e-5
1.170,   5.240e-5
1.171,   5.237e-5
1.172,   5.243e-5
1.173,   5.235e-5
1.174,   5.223e-5
1.175,   5.220e-5
1.176,   5.226e-5
1.177,   5.209e-5
1.178,   5.202e-5
1.179,   5.211e-5
1.180,   5.194e-5
1.181,   5.211e-5
1.182,   5.210e-5
1.183,   5.191e-5
1.184,   5.212e-5
1.185,   5.210e-5
1.186,   5.192e-5
1.187,   5.210e-5
1.188,   5.197e-5
1.189,   5.196e-5
1.190,   5.208e-5
1.191,   5.203e-5
1.192,   5.207e-5
1.193,   5.210e-5
1.194,   5.214e-5
1.195,   5.210e-5
1.196,   5.211e-5
1.197,   5.220e-5
1.198,   5.225e-5
1.199,   5.233e-5
1.200,   5.232e-5
1.201,   5.233e-5
1.202,   5.246e-5
1.203,   5.251e-5
1.204,   5.235e-5
1.205,   5.259e-5
1.206,   5.258e-5
1.207,   5.254e-5
1.208,   5.273e-5
1.209,   5.264e-5
1.210,   5.265e-5
1.211,   5.284e-5
1.212,   5.269e-5
1.213,   5.284e-5
1.214,   5.301e-5
1.215,   5.287e-5
1.216,   5.308e-5
1.217,   5.314e-5
1.218,   5.304e-5
1.219,   5.325e-5
1.220,   5.321e-5
1.221,   5.319e-5
1.222,   5.331e-5
1.223,   5.346e-5
1.224,   5.340e-5
1.225,   5.348e-5
1.226,   5.354e-5
1.227,   5.359e-5
1.228,   5.359e-5
1.229,   5.366e-5
1.230,   5.367e-5
1.231,   5.367e-5
1.232,   5.393e-5
1.233,   5.381e-5
1.234,   5.396e-5
1.235,   5.412e-5
1.236,   5.400e-5
1.237,   5.417e-5
1.238,   5.412e-5
1.239,   5.405e-5
1.240,   5.440e-5
1.241,   5.424e-5
1.242,   5.422e-5
1.243,   5.452e-5
1.244,   5.427e-5
1.245,   5.440e-5
1.246,   5.459e-5
1.247,   5.436e-5
1.248,   5.458e-5
1.249,   5.475e-5
1.250,   5.452e-5
1.251,   5.472e-5
1.252,   5.469e-5
1.253,   5.469e-5
1.254,   5.480e-5
1.255,   5.485e-5
1.256,   5.485e-5
1.257,   5.485e-5
1.258,   5.490e-5
1.259,   5.497e-5
1.260,   5.488e-5
1.261,   5.508e-5
1.262,   5.501e-5
1.263,   5.500e-5
1.264,   5.516e-5
1.265,   5.505e-5
1.266,   5.515e-5
1.267,   5.527e-5
1.268,   5.510e-5
1.269,   5.526e-5
1.270,   5.538e-5
1.271,   5.507e-5
1.272,   5.540e-5
1.273,   5.528e-5
1.274,   5.531e-5
1.275,   5.554e-5
1.276,   5.538e-5
1.277,   5.529e-5
1.278,   5.558e-5
1.279,   5.543e-5
1.280,   5.548e-5
1.281,   5.555e-5
1.282,   5.544e-5
1.283,   5.563e-5
1.284,   5.560e-5
1.285,   5.554e-5
1.286,   5.562e-5
1.287,   5.571e-5
1.288,   5.570e-5
1.289,   5.563e-5
1.290,   5.582e-5
1.291,   5.580e-5
1.292,   5.564e-5
1.293,   5.587e-5
1.294,   5.583e-5
1.295,   5.575e-5
1.296,   5.600e-5
1.297,   5.588e-5
1.298,   5.593e-5
1.299,   5.609e-5
1.300,   5.595e-5
1.301,   5.605e-5
1.302,   5.614e-5
1.303,   5.597e-5
1.304,   5.616e-5
1.305,   5.621e-5
1.306,   5.611e-5
1.307,   5.630e-5
1.308,   5.616e-5
1.309,   5.624e-5
1.310,   5.640e-5
1.311,   5.624e-5
1.312,   5.630e-5
1.313,   5.646e-5
1.314,   5.644e-5
1.315,   5.647e-5
1.316,   5.650e-5
1.317,   5.652e-5
1.318,   5.657e-5
1.319,   5.662e-5
1.320,   5.673e-5
1.321,   5.666e-5
1.322,   5.681e-5
1.323,   5.681e-5
1.324,   5.672e-5
1.325,   5.707e-5
1.326,   5.706e-5
1.327,   5.697e-5
1.328,   5.724e-5
1.329,   5.714e-5
1.330,   5.717e-5
1.331,   5.750e-5
1.332,   5.730e-5
1.333,   5.749e-5
1.334,   5.764e-5
1.335,   5.751e-5
1.336,   5.774e-5
1.337,   5.781e-5
1.338,   5.773e-5
1.339,   5.806e-5
1.340,   5.802e-5
1.341,   5.800e-5
1.342,   5.830e-5
1.343,   5.824e-5
1.344,   5.834e-5
1.345,   5.855e-5
1.346,   5.851e-5
1.347,   5.873e-5
1.348,   5.886e-5
1.349,   5.904e-5
1.350,   5.914e-5
1.351,   5.930e-5
1.352,   5.944e-5
1.353,   5.947e-5
1.354,   5.976e-5
1.355,   5.993e-5
1.356,   5.998e-5
1.357,   6.027e-5
1.358,   6.045e-5
1.359,   6.051e-5
1.360,   6.104e-5
1.361,   6.103e-5
1.362,   6.125e-5
1.363,   6.169e-5
1.364,   6.168e-5
1.365,   6.207e-5
1.366,   6.247e-5
1.367,   6.254e-5
1.368,   6.296e-5
1.369,   6.336e-5
1.370,   6.357e-5
1.371,   6.410e-5
1.372,   6.434e-5
1.373,   6.472e-5
1.374,   6.529e-5
1.375,   6.562e-5
1.376,   6.611e-5
1.377,   6.670e-5
1.378,   6.726e-5
1.379,   6.788e-5
1.380,   6.844e-5
1.381,   6.913e-5
1.382,   6.976e-5
1.383,   7.050e-5
1.384,   7.132e-5
1.385,   7.207e-5
1.386,   7.306e-5
1.387,   7.406e-5
1.388,   7.482e-5
1.389,   7.623e-5
1.390,   7.737e-5
1.391,   7.827e-5
1.392,   7.987e-5
1.393,   8.111e-5
1.394,   8.237e-5
1.395,   8.425e-5
1.396,   8.563e-5
1.397,   8.740e-5
1.398,   8.938e-5
1.399,   9.104e-5
1.400,   9.329e-5
1.401,   9.543e-5
1.402,   9.771e-5
1.403,   1.003e-4
1.404,   1.029e-4
1.405,   1.057e-4
1.406,   1.087e-4
1.407,   1.118e-4
1.408,   1.151e-4
1.409,   1.187e-4
1.410,   1.225e-4
1.411,   1.264e-4
1.412,   1.304e-4
1.413,   1.349e-4
1.414,   1.395e-4
1.415,   1.444e-4
1.416,   1.496e-4
1.417,   1.548e-4
1.418,   1.607e-4
1.419,   1.669e-4
1.420,   1.730e-4
1.421,   1.799e-4
1.422,   1.871e-4
1.423,   1.943e-4
1.424,   2.023e-4
1.425,   2.107e-4
1.426,   2.193e-4
1.427,   2.288e-4
1.428,   2.386e-4
1.429,   2.485e-4
1.430,   2.594e-4
1.431,   2.704e-4
1.432,   2.821e-4
1.433,   2.944e-4
1.434,   3.072e-4
1.435,   3.207e-4
1.436,   3.346e-4
1.437,   3.491e-4
1.438,   3.650e-4
1.439,   3.815e-4
1.440,   3.985e-4
1.441,   4.161e-4
1.442,   4.344e-4
1.443,   4.536e-4
1.444,   4.736e-4
1.445,   4.945e-4
1.446,   5.152e-4
1.447,   5.365e-4
1.448,   5.611e-4
1.449,   5.860e-4
1.450,   6.116e-4
1.451,   6.385e-4
1.452,   6.657e-4
1.453,   6.946e-4
1.454,   7.247e-4
1.455,   7.558e-4
1.456,   7.882e-4
1.457,   8.215e-4
1.458,   8.561e-4
1.459,   8.917e-4
1.460,   9.289e-4
1.461,   9.681e-4
1.462,   1.009e-3
1.463,   1.051e-3
1.464,   1.094e-3
1.465,   1.138e-3
1.466,   1.185e-3
1.467,   1.233e-3
1.468,   1.281e-3
1.469,   1.332e-3
1.470,   1.384e-3
1.471,   1.439e-3
1.472,   1.495e-3
1.473,   1.553e-3
1.474,   1.612e-3
1.475,   1.674e-3
1.476,   1.736e-3
1.477,   1.801e-3
1.478,   1.866e-3
1.479,   1.935e-3
1.480,   2.006e-3
1.481,   2.079e-3
1.482,   2.152e-3
1.483,   2.229e-3
1.484,   2.309e-3
1.485,   2.391e-3
1.486,   2.475e-3
1.487,   2.558e-3
1.488,   2.645e-3
1.489,   2.734e-3
1.490,   2.825e-3
1.491,   2.917e-3
1.492,   3.013e-3
1.493,   3.111e-3
1.494,   3.210e-3
1.495,   3.317e-3
1.496,   3.427e-3
1.497,   3.552e-3
1.498,   3.671e-3
1.499,   3.789e-3
1.500,   3.897e-3
1.501,   4.013e-3
1.502,   4.133e-3
1.503,   4.250e-3
1.504,   4.366e-3
1.505,   4.484e-3
1.506,   4.618e-3
1.507,   4.785e-3
1.508,   4.963e-3
1.509,   5.105e-3
1.510,   5.251e-3
1.511,   5.392e-3
1.512,   5.532e-3
1.513,   5.668e-3
1.514,   5.807e-3
1.515,   5.957e-3
1.516,   6.101e-3
1.517,   6.247e-3
1.518,   6.405e-3
1.519,   6.591e-3
1.520,   6.743e-3
1.521,   6.927e-3
1.522,   7.144e-3
1.523,   7.293e-3
1.524,   7.443e-3
1.525,   7.625e-3
1.526,   7.791e-3
1.527,   8.009e-3
1.528,   8.171e-3
1.529,   8.326e-3
1.530,   8.578e-3
1.531,   8.815e-3
1.532,   9.002e-3
1.533,   9.224e-3
1.534,   9.384e-3
1.535,   9.543e-3
1.536,   9.783e-3
1.537,   9.929e-3
1.538,   1.007e-2
1.539,   1.007e-2
1.540,   1.007e-2
1.541,   1.007e-2
1.542,   1.007e-2
1.543,   1.007e-2