File: Experimental Records and Raw Data/batch2/final500/B2_VARIANCE_500#12_Full-262mV.txt
Jan. 19, 2023   12:08:57
Linear Sweep Voltammetry
File: d:\current work\al_oer\electrochemical test data\batch 2\500\B2_VARIANCE_500#12_Full-262mV.txt
Data Source:  Experiment
Instrument Model:  CHI660E
Header:
Note:

Init E (V) = 1.098

Final E (V) = 1.556

Scan Rate (V/s) = 0.010
Sample Interval (V) = 0.001
Quiet Time (sec) = 2
Sensitivity (A/V) = 0.001
Comp R (ohm) = 6.0

Results:

Channel 1:

Potential/V, Current/A
1.098,   7.147e-5
1.099,   7.098e-5
1.100,   6.708e-5
1.101,   6.324e-5
1.102,   5.998e-5
1.103,   5.699e-5
1.104,   5.438e-5
1.105,   5.212e-5
1.106,   5.003e-5
1.107,   4.818e-5
1.108,   4.653e-5
1.109,   4.501e-5
1.110,   4.369e-5
1.111,   4.248e-5
1.112,   4.138e-5
1.113,   4.040e-5
1.114,   3.942e-5
1.115,   3.861e-5
1.116,   3.792e-5
1.117,   3.720e-5
1.118,   3.661e-5
1.119,   3.606e-5
1.120,   3.542e-5
1.121,   3.494e-5
1.122,   3.436e-5
1.123,   3.395e-5
1.124,   3.353e-5
1.125,   3.313e-5
1.126,   3.281e-5
1.127,   3.247e-5
1.128,   3.214e-5
1.129,   3.189e-5
1.130,   3.153e-5
1.131,   3.132e-5
1.132,   3.117e-5
1.133,   3.084e-5
1.134,   3.064e-5
1.135,   3.050e-5
1.136,   3.028e-5
1.137,   3.018e-5
1.138,   2.996e-5
1.139,   2.981e-5
1.140,   2.972e-5
1.141,   2.954e-5
1.142,   2.948e-5
1.143,   2.932e-5
1.144,   2.922e-5
1.145,   2.917e-5
1.146,   2.903e-5
1.147,   2.893e-5
1.148,   2.891e-5
1.149,   2.880e-5
1.150,   2.881e-5
1.151,   2.871e-5
1.152,   2.860e-5
1.153,   2.863e-5
1.154,   2.856e-5
1.155,   2.850e-5
1.156,   2.850e-5
1.157,   2.848e-5
1.158,   2.844e-5
1.159,   2.840e-5
1.160,   2.837e-5
1.161,   2.839e-5
1.162,   2.833e-5
1.163,   2.838e-5
1.164,   2.841e-5
1.165,   2.828e-5
1.166,   2.839e-5
1.167,   2.840e-5
1.168,   2.833e-5
1.169,   2.839e-5
1.170,   2.843e-5
1.171,   2.840e-5
1.172,   2.842e-5
1.173,   2.842e-5
1.174,   2.848e-5
1.175,   2.845e-5
1.176,   2.849e-5
1.177,   2.856e-5
1.178,   2.851e-5
1.179,   2.856e-5
1.180,   2.863e-5
1.181,   2.860e-5
1.182,   2.871e-5
1.183,   2.875e-5
1.184,   2.873e-5
1.185,   2.882e-5
1.186,   2.880e-5
1.187,   2.884e-5
1.188,   2.893e-5
1.189,   2.894e-5
1.190,   2.901e-5
1.191,   2.902e-5
1.192,   2.909e-5
1.193,   2.916e-5
1.194,   2.914e-5
1.195,   2.925e-5
1.196,   2.930e-5
1.197,   2.934e-5
1.198,   2.944e-5
1.199,   2.947e-5
1.200,   2.945e-5
1.201,   2.957e-5
1.202,   2.962e-5
1.203,   2.964e-5
1.204,   2.975e-5
1.205,   2.971e-5
1.206,   2.983e-5
1.207,   2.986e-5
1.208,   2.998e-5
1.209,   3.004e-5
1.210,   3.000e-5
1.211,   3.008e-5
1.212,   3.017e-5
1.213,   3.017e-5
1.214,   3.026e-5
1.215,   3.032e-5
1.216,   3.032e-5
1.217,   3.049e-5
1.218,   3.053e-5
1.219,   3.059e-5
1.220,   3.065e-5
1.221,   3.067e-5
1.222,   3.079e-5
1.223,   3.080e-5
1.224,   3.081e-5
1.225,   3.094e-5
1.226,   3.092e-5
1.227,   3.103e-5
1.228,   3.111e-5
1.229,   3.109e-5
1.230,   3.123e-5
1.231,   3.127e-5
1.232,   3.128e-5
1.233,   3.143e-5
1.234,   3.144e-5
1.235,   3.149e-5
1.236,   3.163e-5
1.237,   3.161e-5
1.238,   3.172e-5
1.239,   3.171e-5
1.240,   3.177e-5
1.241,   3.185e-5
1.242,   3.188e-5
1.243,   3.195e-5
1.244,   3.202e-5
1.245,   3.199e-5
1.246,   3.213e-5
1.247,   3.219e-5
1.248,   3.221e-5
1.249,   3.233e-5
1.250,   3.230e-5
1.251,   3.238e-5
1.252,   3.242e-5
1.253,   3.246e-5
1.254,   3.255e-5
1.255,   3.258e-5
1.256,   3.263e-5
1.257,   3.273e-5
1.258,   3.271e-5
1.259,   3.276e-5
1.260,   3.290e-5
1.261,   3.283e-5
1.262,   3.293e-5
1.263,   3.293e-5
1.264,   3.294e-5
1.265,   3.307e-5
1.266,   3.304e-5
1.267,   3.313e-5
1.268,   3.319e-5
1.269,   3.318e-5
1.270,   3.326e-5
1.271,   3.327e-5
1.272,   3.336e-5
1.273,   3.346e-5
1.274,   3.339e-5
1.275,   3.344e-5
1.276,   3.352e-5
1.277,   3.350e-5
1.278,   3.360e-5
1.279,   3.365e-5
1.280,   3.364e-5
1.281,   3.377e-5
1.282,   3.378e-5
1.283,   3.381e-5
1.284,   3.385e-5
1.285,   3.387e-5
1.286,   3.393e-5
1.287,   3.394e-5
1.288,   3.396e-5
1.289,   3.406e-5
1.290,   3.411e-5
1.291,   3.419e-5
1.292,   3.421e-5
1.293,   3.419e-5
1.294,   3.426e-5
1.295,   3.431e-5
1.296,   3.427e-5
1.297,   3.440e-5
1.298,   3.439e-5
1.299,   3.441e-5
1.300,   3.449e-5
1.301,   3.447e-5
1.302,   3.458e-5
1.303,   3.462e-5
1.304,   3.466e-5
1.305,   3.474e-5
1.306,   3.470e-5
1.307,   3.478e-5
1.308,   3.490e-5
1.309,   3.488e-5
1.310,   3.499e-5
1.311,   3.504e-5
1.312,   3.505e-5
1.313,   3.518e-5
1.314,   3.514e-5
1.315,   3.521e-5
1.316,   3.525e-5
1.317,   3.532e-5
1.318,   3.541e-5
1.319,   3.543e-5
1.320,   3.543e-5
1.321,   3.558e-5
1.322,   3.554e-5
1.323,   3.572e-5
1.324,   3.585e-5
1.325,   3.581e-5
1.326,   3.592e-5
1.327,   3.599e-5
1.328,   3.596e-5
1.329,   3.608e-5
1.330,   3.609e-5
1.331,   3.624e-5
1.332,   3.630e-5
1.333,   3.629e-5
1.334,   3.644e-5
1.335,   3.652e-5
1.336,   3.663e-5
1.337,   3.672e-5
1.338,   3.673e-5
1.339,   3.686e-5
1.340,   3.694e-5
1.341,   3.700e-5
1.342,   3.712e-5
1.343,   3.720e-5
1.344,   3.728e-5
1.345,   3.743e-5
1.346,   3.744e-5
1.347,   3.752e-5
1.348,   3.767e-5
1.349,   3.777e-5
1.350,   3.784e-5
1.351,   3.796e-5
1.352,   3.806e-5
1.353,   3.824e-5
1.354,   3.830e-5
1.355,   3.847e-5
1.356,   3.869e-5
1.357,   3.875e-5
1.358,   3.897e-5
1.359,   3.917e-5
1.360,   3.924e-5
1.361,   3.950e-5
1.362,   3.972e-5
1.363,   3.984e-5
1.364,   4.004e-5
1.365,   4.019e-5
1.366,   4.044e-5
1.367,   4.073e-5
1.368,   4.103e-5
1.369,   4.130e-5
1.370,   4.144e-5
1.371,   4.176e-5
1.372,   4.210e-5
1.373,   4.236e-5
1.374,   4.278e-5
1.375,   4.310e-5
1.376,   4.340e-5
1.377,   4.384e-5
1.378,   4.414e-5
1.379,   4.458e-5
1.380,   4.510e-5
1.381,   4.550e-5
1.382,   4.603e-5
1.383,   4.657e-5
1.384,   4.708e-5
1.385,   4.771e-5
1.386,   4.819e-5
1.387,   4.897e-5
1.388,   4.974e-5
1.389,   5.036e-5
1.390,   5.117e-5
1.391,   5.196e-5
1.392,   5.274e-5
1.393,   5.375e-5
1.394,   5.465e-5
1.395,   5.566e-5
1.396,   5.676e-5
1.397,   5.780e-5
1.398,   5.897e-5
1.399,   6.024e-5
1.400,   6.162e-5
1.401,   6.307e-5
1.402,   6.443e-5
1.403,   6.603e-5
1.404,   6.769e-5
1.405,   6.932e-5
1.406,   7.126e-5
1.407,   7.323e-5
1.408,   7.521e-5
1.409,   7.751e-5
1.410,   7.981e-5
1.411,   8.224e-5
1.412,   8.482e-5
1.413,   8.751e-5
1.414,   9.042e-5
1.415,   9.334e-5
1.416,   9.645e-5
1.417,   9.985e-5
1.418,   1.033e-4
1.419,   1.070e-4
1.420,   1.109e-4
1.421,   1.148e-4
1.422,   1.192e-4
1.423,   1.237e-4
1.424,   1.284e-4
1.425,   1.335e-4
1.426,   1.386e-4
1.427,   1.441e-4
1.428,   1.499e-4
1.429,   1.558e-4
1.430,   1.624e-4
1.431,   1.692e-4
1.432,   1.763e-4
1.433,   1.839e-4
1.434,   1.915e-4
1.435,   1.994e-4
1.436,   2.079e-4
1.437,   2.166e-4
1.438,   2.259e-4
1.439,   2.358e-4
1.440,   2.459e-4
1.441,   2.564e-4
1.442,   2.674e-4
1.443,   2.790e-4
1.444,   2.910e-4
1.445,   3.036e-4
1.446,   3.170e-4
1.447,   3.309e-4
1.448,   3.453e-4
1.449,   3.602e-4
1.450,   3.756e-4
1.451,   3.919e-4
1.452,   4.089e-4
1.453,   4.262e-4
1.454,   4.445e-4
1.455,   4.635e-4
1.456,   4.836e-4
1.457,   5.042e-4
1.458,   5.255e-4
1.459,   5.479e-4
1.460,   5.712e-4
1.461,   5.951e-4
1.462,   6.200e-4
1.463,   6.452e-4
1.464,   6.719e-4
1.465,   7.001e-4
1.466,   7.288e-4
1.467,   7.586e-4
1.468,   7.898e-4
1.469,   8.217e-4
1.470,   8.548e-4
1.471,   8.892e-4
1.472,   9.248e-4
1.473,   9.622e-4
1.474,   9.997e-4
1.475,   1.039e-3
1.476,   1.079e-3
1.477,   1.121e-3
1.478,   1.164e-3
1.479,   1.207e-3
1.480,   1.253e-3
1.481,   1.299e-3
1.482,   1.347e-3
1.483,   1.397e-3
1.484,   1.448e-3
1.485,   1.501e-3
1.486,   1.556e-3
1.487,   1.612e-3
1.488,   1.669e-3
1.489,   1.729e-3
1.490,   1.789e-3
1.491,   1.850e-3
1.492,   1.913e-3
1.493,   1.978e-3
1.494,   2.045e-3
1.495,   2.113e-3
1.496,   2.184e-3
1.497,   2.259e-3
1.498,   2.333e-3
1.499,   2.410e-3
1.500,   2.488e-3
1.501,   2.566e-3
1.502,   2.646e-3
1.503,   2.728e-3
1.504,   2.812e-3
1.505,   2.896e-3
1.506,   2.982e-3
1.507,   3.071e-3
1.508,   3.162e-3
1.509,   3.258e-3
1.510,   3.353e-3
1.511,   3.450e-3
1.512,   3.554e-3
1.513,   3.656e-3
1.514,   3.756e-3
1.515,   3.857e-3
1.516,   3.960e-3
1.517,   4.072e-3
1.518,   4.189e-3
1.519,   4.303e-3
1.520,   4.423e-3
1.521,   4.547e-3
1.522,   4.659e-3
1.523,   4.780e-3
1.524,   4.896e-3
1.525,   5.011e-3
1.526,   5.142e-3
1.527,   5.276e-3
1.528,   5.397e-3
1.529,   5.520e-3
1.530,   5.655e-3
1.531,   5.799e-3
1.532,   5.951e-3
1.533,   6.101e-3
1.534,   6.241e-3
1.535,   6.410e-3
1.536,   6.560e-3
1.537,   6.712e-3
1.538,   6.872e-3
1.539,   7.062e-3
1.540,   7.219e-3
1.541,   7.397e-3
1.542,   7.557e-3
1.543,   7.704e-3
1.544,   7.880e-3
1.545,   8.060e-3
1.546,   8.243e-3
1.547,   8.424e-3
1.548,   8.591e-3
1.549,   8.768e-3
1.550,   9.000e-3
1.551,   9.172e-3
1.552,   9.327e-3
1.553,   9.478e-3
1.554,   9.687e-3
1.555,   9.942e-3
1.556,   1.006e-2