File: Experimental Records and Raw Data/batch2/final500/B2_VARIANCE_500#7_Full-293mV.txt
Jan. 18, 2023   15:37:15
Linear Sweep Voltammetry
File: d:\current work\al_oer\electrochemical test data\batch 2\500\B2_VARIANCE_500#7_Full-293mV.txt
Data Source:  Experiment
Instrument Model:  CHI660E
Header:
Note:

Init E (V) = 1.098

Final E (V) = 1.682

Scan Rate (V/s) = 0.010
Sample Interval (V) = 0.001
Quiet Time (sec) = 2
Sensitivity (A/V) = 0.001
Comp R (ohm) = 4.9

Results:

Channel 1:

Potential/V, Current/A
1.098,   4.256e-5
1.099,   4.183e-5
1.100,   3.952e-5
1.101,   3.739e-5
1.102,   3.545e-5
1.103,   3.366e-5
1.104,   3.218e-5
1.105,   3.084e-5
1.106,   2.957e-5
1.107,   2.847e-5
1.108,   2.750e-5
1.109,   2.656e-5
1.110,   2.581e-5
1.111,   2.504e-5
1.112,   2.439e-5
1.113,   2.384e-5
1.114,   2.320e-5
1.115,   2.267e-5
1.116,   2.219e-5
1.117,   2.168e-5
1.118,   2.134e-5
1.119,   2.098e-5
1.120,   2.058e-5
1.121,   2.027e-5
1.122,   1.991e-5
1.123,   1.963e-5
1.124,   1.936e-5
1.125,   1.912e-5
1.126,   1.887e-5
1.127,   1.868e-5
1.128,   1.847e-5
1.129,   1.827e-5
1.130,   1.810e-5
1.131,   1.793e-5
1.132,   1.774e-5
1.133,   1.761e-5
1.134,   1.750e-5
1.135,   1.734e-5
1.136,   1.716e-5
1.137,   1.710e-5
1.138,   1.696e-5
1.139,   1.688e-5
1.140,   1.679e-5
1.141,   1.671e-5
1.142,   1.665e-5
1.143,   1.658e-5
1.144,   1.649e-5
1.145,   1.646e-5
1.146,   1.639e-5
1.147,   1.627e-5
1.148,   1.625e-5
1.149,   1.620e-5
1.150,   1.614e-5
1.151,   1.617e-5
1.152,   1.611e-5
1.153,   1.610e-5
1.154,   1.607e-5
1.155,   1.602e-5
1.156,   1.597e-5
1.157,   1.601e-5
1.158,   1.600e-5
1.159,   1.590e-5
1.160,   1.593e-5
1.161,   1.595e-5
1.162,   1.589e-5
1.163,   1.592e-5
1.164,   1.587e-5
1.165,   1.586e-5
1.166,   1.591e-5
1.167,   1.590e-5
1.168,   1.591e-5
1.169,   1.592e-5
1.170,   1.591e-5
1.171,   1.592e-5
1.172,   1.596e-5
1.173,   1.589e-5
1.174,   1.594e-5
1.175,   1.597e-5
1.176,   1.597e-5
1.177,   1.604e-5
1.178,   1.602e-5
1.179,   1.607e-5
1.180,   1.613e-5
1.181,   1.612e-5
1.182,   1.616e-5
1.183,   1.620e-5
1.184,   1.618e-5
1.185,   1.619e-5
1.186,   1.620e-5
1.187,   1.625e-5
1.188,   1.630e-5
1.189,   1.634e-5
1.190,   1.637e-5
1.191,   1.639e-5
1.192,   1.646e-5
1.193,   1.647e-5
1.194,   1.650e-5
1.195,   1.657e-5
1.196,   1.658e-5
1.197,   1.658e-5
1.198,   1.669e-5
1.199,   1.666e-5
1.200,   1.669e-5
1.201,   1.681e-5
1.202,   1.676e-5
1.203,   1.679e-5
1.204,   1.687e-5
1.205,   1.684e-5
1.206,   1.691e-5
1.207,   1.694e-5
1.208,   1.691e-5
1.209,   1.706e-5
1.210,   1.708e-5
1.211,   1.706e-5
1.212,   1.710e-5
1.213,   1.712e-5
1.214,   1.716e-5
1.215,   1.719e-5
1.216,   1.718e-5
1.217,   1.722e-5
1.218,   1.728e-5
1.219,   1.731e-5
1.220,   1.737e-5
1.221,   1.744e-5
1.222,   1.742e-5
1.223,   1.744e-5
1.224,   1.749e-5
1.225,   1.756e-5
1.226,   1.749e-5
1.227,   1.753e-5
1.228,   1.758e-5
1.229,   1.757e-5
1.230,   1.762e-5
1.231,   1.762e-5
1.232,   1.766e-5
1.233,   1.772e-5
1.234,   1.772e-5
1.235,   1.768e-5
1.236,   1.781e-5
1.237,   1.773e-5
1.238,   1.784e-5
1.239,   1.784e-5
1.240,   1.781e-5
1.241,   1.785e-5
1.242,   1.786e-5
1.243,   1.785e-5
1.244,   1.792e-5
1.245,   1.792e-5
1.246,   1.789e-5
1.247,   1.792e-5
1.248,   1.797e-5
1.249,   1.798e-5
1.250,   1.798e-5
1.251,   1.802e-5
1.252,   1.800e-5
1.253,   1.802e-5
1.254,   1.806e-5
1.255,   1.803e-5
1.256,   1.804e-5
1.257,   1.813e-5
1.258,   1.803e-5
1.259,   1.813e-5
1.260,   1.816e-5
1.261,   1.805e-5
1.262,   1.815e-5
1.263,   1.818e-5
1.264,   1.813e-5
1.265,   1.819e-5
1.266,   1.819e-5
1.267,   1.818e-5
1.268,   1.830e-5
1.269,   1.820e-5
1.270,   1.826e-5
1.271,   1.829e-5
1.272,   1.831e-5
1.273,   1.832e-5
1.274,   1.829e-5
1.275,   1.834e-5
1.276,   1.838e-5
1.277,   1.836e-5
1.278,   1.840e-5
1.279,   1.840e-5
1.280,   1.845e-5
1.281,   1.846e-5
1.282,   1.842e-5
1.283,   1.849e-5
1.284,   1.849e-5
1.285,   1.851e-5
1.286,   1.857e-5
1.287,   1.851e-5
1.288,   1.855e-5
1.289,   1.863e-5
1.290,   1.863e-5
1.291,   1.869e-5
1.292,   1.871e-5
1.293,   1.867e-5
1.294,   1.876e-5
1.295,   1.877e-5
1.296,   1.872e-5
1.297,   1.884e-5
1.298,   1.886e-5
1.299,   1.886e-5
1.300,   1.893e-5
1.301,   1.895e-5
1.302,   1.902e-5
1.303,   1.901e-5
1.304,   1.909e-5
1.305,   1.913e-5
1.306,   1.915e-5
1.307,   1.916e-5
1.308,   1.922e-5
1.309,   1.926e-5
1.310,   1.932e-5
1.311,   1.936e-5
1.312,   1.940e-5
1.313,   1.947e-5
1.314,   1.941e-5
1.315,   1.946e-5
1.316,   1.954e-5
1.317,   1.958e-5
1.318,   1.967e-5
1.319,   1.965e-5
1.320,   1.968e-5
1.321,   1.983e-5
1.322,   1.978e-5
1.323,   1.991e-5
1.324,   2.004e-5
1.325,   1.999e-5
1.326,   2.005e-5
1.327,   2.007e-5
1.328,   2.009e-5
1.329,   2.018e-5
1.330,   2.027e-5
1.331,   2.032e-5
1.332,   2.038e-5
1.333,   2.047e-5
1.334,   2.047e-5
1.335,   2.056e-5
1.336,   2.068e-5
1.337,   2.074e-5
1.338,   2.072e-5
1.339,   2.084e-5
1.340,   2.091e-5
1.341,   2.094e-5
1.342,   2.108e-5
1.343,   2.110e-5
1.344,   2.115e-5
1.345,   2.129e-5
1.346,   2.128e-5
1.347,   2.140e-5
1.348,   2.150e-5
1.349,   2.154e-5
1.350,   2.166e-5
1.351,   2.172e-5
1.352,   2.179e-5
1.353,   2.191e-5
1.354,   2.192e-5
1.355,   2.201e-5
1.356,   2.212e-5
1.357,   2.218e-5
1.358,   2.231e-5
1.359,   2.240e-5
1.360,   2.246e-5
1.361,   2.261e-5
1.362,   2.275e-5
1.363,   2.285e-5
1.364,   2.296e-5
1.365,   2.299e-5
1.366,   2.313e-5
1.367,   2.329e-5
1.368,   2.345e-5
1.369,   2.360e-5
1.370,   2.371e-5
1.371,   2.388e-5
1.372,   2.404e-5
1.373,   2.420e-5
1.374,   2.441e-5
1.375,   2.456e-5
1.376,   2.477e-5
1.377,   2.502e-5
1.378,   2.515e-5
1.379,   2.542e-5
1.380,   2.565e-5
1.381,   2.581e-5
1.382,   2.613e-5
1.383,   2.640e-5
1.384,   2.670e-5
1.385,   2.707e-5
1.386,   2.733e-5
1.387,   2.771e-5
1.388,   2.812e-5
1.389,   2.842e-5
1.390,   2.887e-5
1.391,   2.931e-5
1.392,   2.975e-5
1.393,   3.027e-5
1.394,   3.084e-5
1.395,   3.133e-5
1.396,   3.195e-5
1.397,   3.253e-5
1.398,   3.317e-5
1.399,   3.385e-5
1.400,   3.472e-5
1.401,   3.547e-5
1.402,   3.624e-5
1.403,   3.721e-5
1.404,   3.806e-5
1.405,   3.900e-5
1.406,   4.011e-5
1.407,   4.115e-5
1.408,   4.229e-5
1.409,   4.358e-5
1.410,   4.474e-5
1.411,   4.612e-5
1.412,   4.758e-5
1.413,   4.905e-5
1.414,   5.074e-5
1.415,   5.236e-5
1.416,   5.402e-5
1.417,   5.596e-5
1.418,   5.784e-5
1.419,   5.989e-5
1.420,   6.211e-5
1.421,   6.432e-5
1.422,   6.668e-5
1.423,   6.914e-5
1.424,   7.176e-5
1.425,   7.454e-5
1.426,   7.757e-5
1.427,   8.045e-5
1.428,   8.361e-5
1.429,   8.691e-5
1.430,   9.036e-5
1.431,   9.393e-5
1.432,   9.773e-5
1.433,   1.017e-4
1.434,   1.057e-4
1.435,   1.101e-4
1.436,   1.146e-4
1.437,   1.192e-4
1.438,   1.243e-4
1.439,   1.293e-4
1.440,   1.346e-4
1.441,   1.402e-4
1.442,   1.459e-4
1.443,   1.519e-4
1.444,   1.584e-4
1.445,   1.647e-4
1.446,   1.716e-4
1.447,   1.787e-4
1.448,   1.860e-4
1.449,   1.937e-4
1.450,   2.015e-4
1.451,   2.098e-4
1.452,   2.185e-4
1.453,   2.274e-4
1.454,   2.367e-4
1.455,   2.463e-4
1.456,   2.563e-4
1.457,   2.666e-4
1.458,   2.773e-4
1.459,   2.884e-4
1.460,   2.999e-4
1.461,   3.119e-4
1.462,   3.240e-4
1.463,   3.364e-4
1.464,   3.494e-4
1.465,   3.629e-4
1.466,   3.767e-4
1.467,   3.912e-4
1.468,   4.061e-4
1.469,   4.211e-4
1.470,   4.367e-4
1.471,   4.527e-4
1.472,   4.690e-4
1.473,   4.861e-4
1.474,   5.037e-4
1.475,   5.213e-4
1.476,   5.396e-4
1.477,   5.581e-4
1.478,   5.783e-4
1.479,   5.978e-4
1.480,   6.177e-4
1.481,   6.378e-4
1.482,   6.590e-4
1.483,   6.805e-4
1.484,   7.018e-4
1.485,   7.243e-4
1.486,   7.467e-4
1.487,   7.703e-4
1.488,   7.932e-4
1.489,   8.163e-4
1.490,   8.403e-4
1.491,   8.701e-4
1.492,   8.954e-4
1.493,   9.207e-4
1.494,   9.468e-4
1.495,   9.731e-4
1.496,   1.000e-3
1.497,   1.028e-3
1.498,   1.055e-3
1.499,   1.083e-3
1.500,   1.111e-3
1.501,   1.139e-3
1.502,   1.169e-3
1.503,   1.199e-3
1.504,   1.240e-3
1.505,   1.278e-3
1.506,   1.314e-3
1.507,   1.348e-3
1.508,   1.381e-3
1.509,   1.417e-3
1.510,   1.453e-3
1.511,   1.486e-3
1.512,   1.522e-3
1.513,   1.561e-3
1.514,   1.597e-3
1.515,   1.631e-3
1.516,   1.667e-3
1.517,   1.703e-3
1.518,   1.738e-3
1.519,   1.774e-3
1.520,   1.811e-3
1.521,   1.848e-3
1.522,   1.884e-3
1.523,   1.925e-3
1.524,   1.970e-3
1.525,   2.010e-3
1.526,   2.047e-3
1.527,   2.086e-3
1.528,   2.136e-3
1.529,   2.210e-3
1.530,   2.260e-3
1.531,   2.308e-3
1.532,   2.347e-3
1.533,   2.384e-3
1.534,   2.427e-3
1.535,   2.469e-3
1.536,   2.499e-3
1.537,   2.540e-3
1.538,   2.585e-3
1.539,   2.626e-3
1.540,   2.667e-3
1.541,   2.720e-3
1.542,   2.758e-3
1.543,   2.803e-3
1.544,   2.852e-3
1.545,   2.901e-3
1.546,   2.958e-3
1.547,   2.994e-3
1.548,   3.035e-3
1.549,   3.074e-3
1.550,   3.141e-3
1.551,   3.203e-3
1.552,   3.245e-3
1.553,   3.283e-3
1.554,   3.328e-3
1.555,   3.369e-3
1.556,   3.411e-3
1.557,   3.455e-3
1.558,   3.519e-3
1.559,   3.632e-3
1.560,   3.692e-3
1.561,   3.737e-3
1.562,   3.768e-3
1.563,   3.808e-3
1.564,   3.853e-3
1.565,   3.977e-3
1.566,   4.050e-3
1.567,   4.111e-3
1.568,   4.151e-3
1.569,   4.183e-3
1.570,   4.239e-3
1.571,   4.278e-3
1.572,   4.404e-3
1.573,   4.541e-3
1.574,   4.569e-3
1.575,   4.595e-3
1.576,   4.647e-3
1.577,   4.711e-3
1.578,   4.746e-3
1.579,   4.783e-3
1.580,   4.834e-3
1.581,   4.894e-3
1.582,   4.958e-3
1.583,   5.016e-3
1.584,   5.079e-3
1.585,   5.127e-3
1.586,   5.181e-3
1.587,   5.237e-3
1.588,   5.299e-3
1.589,   5.510e-3
1.590,   5.648e-3
1.591,   5.687e-3
1.592,   5.698e-3
1.593,   5.740e-3
1.594,   5.864e-3
1.595,   5.927e-3
1.596,   5.963e-3
1.597,   5.996e-3
1.598,   6.081e-3
1.599,   6.110e-3
1.600,   6.131e-3
1.601,   6.326e-3
1.602,   6.410e-3
1.603,   6.460e-3
1.604,   6.491e-3
1.605,   6.524e-3
1.606,   6.564e-3
1.607,   6.563e-3
1.608,   6.619e-3
1.609,   6.741e-3
1.610,   6.827e-3
1.611,   6.849e-3
1.612,   6.900e-3
1.613,   6.945e-3
1.614,   6.986e-3
1.615,   7.094e-3
1.616,   7.162e-3
1.617,   7.167e-3
1.618,   7.235e-3
1.619,   7.292e-3
1.620,   7.315e-3
1.621,   7.368e-3
1.622,   7.472e-3
1.623,   7.529e-3
1.624,   7.619e-3
1.625,   7.662e-3
1.626,   7.674e-3
1.627,   7.814e-3
1.628,   7.847e-3
1.629,   7.854e-3
1.630,   7.851e-3
1.631,   7.935e-3
1.632,   8.017e-3
1.633,   8.085e-3
1.634,   8.151e-3
1.635,   8.159e-3
1.636,   8.180e-3
1.637,   8.293e-3
1.638,   8.398e-3
1.639,   8.568e-3
1.640,   8.643e-3
1.641,   8.778e-3
1.642,   8.847e-3
1.643,   8.898e-3
1.644,   8.848e-3
1.645,   8.812e-3
1.646,   8.882e-3
1.647,   8.875e-3
1.648,   8.946e-3
1.649,   9.046e-3
1.650,   9.117e-3
1.651,   9.100e-3
1.652,   9.212e-3
1.653,   9.261e-3
1.654,   9.296e-3
1.655,   9.335e-3
1.656,   9.358e-3
1.657,   9.416e-3
1.658,   9.404e-3
1.659,   9.499e-3
1.660,   9.541e-3
1.661,   9.546e-3
1.662,   9.517e-3
1.663,   9.465e-3
1.664,   9.544e-3
1.665,   9.599e-3
1.666,   9.569e-3
1.667,   9.561e-3
1.668,   9.683e-3
1.669,   9.733e-3
1.670,   9.759e-3
1.671,   9.725e-3
1.672,   9.810e-3
1.673,   9.952e-3
1.674,   1.007e-2
1.675,   1.007e-2
1.676,   1.007e-2
1.677,   1.007e-2
1.678,   1.007e-2
1.679,   1.007e-2
1.680,   1.007e-2
1.681,   1.007e-2
1.682,   1.007e-2