File: Experimental Records and Raw Data/batch2/final500/B2_VARIANCE_500#17_High_Quality-350mV.txt
Jan. 19, 2023   14:07:58
Linear Sweep Voltammetry
File: d:\current work\al_oer\electrochemical test data\batch 2\500\B2_VARIANCE_500#17_High_Quality-350mV.txt
Data Source:  Experiment
Instrument Model:  CHI660E
Header:
Note:

Init E (V) = 1.099

Final E (V) = 1.754

Scan Rate (V/s) = 0.010
Sample Interval (V) = 0.001
Quiet Time (sec) = 2
Sensitivity (A/V) = 0.001
Comp R (ohm) = 5.9

Results:

Channel 1:

Potential/V, Current/A
1.099,   3.813e-5
1.100,   3.740e-5
1.101,   3.544e-5
1.102,   3.346e-5
1.103,   3.175e-5
1.104,   3.018e-5
1.105,   2.880e-5
1.106,   2.758e-5
1.107,   2.651e-5
1.108,   2.549e-5
1.109,   2.459e-5
1.110,   2.378e-5
1.111,   2.304e-5
1.112,   2.239e-5
1.113,   2.176e-5
1.114,   2.119e-5
1.115,   2.062e-5
1.116,   2.017e-5
1.117,   1.969e-5
1.118,   1.924e-5
1.119,   1.888e-5
1.120,   1.856e-5
1.121,   1.820e-5
1.122,   1.789e-5
1.123,   1.759e-5
1.124,   1.733e-5
1.125,   1.707e-5
1.126,   1.684e-5
1.127,   1.664e-5
1.128,   1.642e-5
1.129,   1.620e-5
1.130,   1.603e-5
1.131,   1.586e-5
1.132,   1.568e-5
1.133,   1.553e-5
1.134,   1.536e-5
1.135,   1.524e-5
1.136,   1.510e-5
1.137,   1.501e-5
1.138,   1.487e-5
1.139,   1.475e-5
1.140,   1.464e-5
1.141,   1.454e-5
1.142,   1.445e-5
1.143,   1.438e-5
1.144,   1.430e-5
1.145,   1.421e-5
1.146,   1.414e-5
1.147,   1.405e-5
1.148,   1.399e-5
1.149,   1.395e-5
1.150,   1.387e-5
1.151,   1.382e-5
1.152,   1.381e-5
1.153,   1.373e-5
1.154,   1.370e-5
1.155,   1.368e-5
1.156,   1.363e-5
1.157,   1.360e-5
1.158,   1.354e-5
1.159,   1.353e-5
1.160,   1.348e-5
1.161,   1.346e-5
1.162,   1.346e-5
1.163,   1.343e-5
1.164,   1.339e-5
1.165,   1.343e-5
1.166,   1.336e-5
1.167,   1.338e-5
1.168,   1.335e-5
1.169,   1.334e-5
1.170,   1.334e-5
1.171,   1.334e-5
1.172,   1.332e-5
1.173,   1.332e-5
1.174,   1.330e-5
1.175,   1.331e-5
1.176,   1.331e-5
1.177,   1.330e-5
1.178,   1.334e-5
1.179,   1.330e-5
1.180,   1.333e-5
1.181,   1.337e-5
1.182,   1.335e-5
1.183,   1.339e-5
1.184,   1.338e-5
1.185,   1.336e-5
1.186,   1.339e-5
1.187,   1.335e-5
1.188,   1.342e-5
1.189,   1.346e-5
1.190,   1.343e-5
1.191,   1.347e-5
1.192,   1.349e-5
1.193,   1.348e-5
1.194,   1.352e-5
1.195,   1.353e-5
1.196,   1.357e-5
1.197,   1.359e-5
1.198,   1.359e-5
1.199,   1.362e-5
1.200,   1.367e-5
1.201,   1.364e-5
1.202,   1.372e-5
1.203,   1.373e-5
1.204,   1.373e-5
1.205,   1.377e-5
1.206,   1.379e-5
1.207,   1.382e-5
1.208,   1.385e-5
1.209,   1.388e-5
1.210,   1.391e-5
1.211,   1.393e-5
1.212,   1.397e-5
1.213,   1.400e-5
1.214,   1.402e-5
1.215,   1.409e-5
1.216,   1.409e-5
1.217,   1.411e-5
1.218,   1.415e-5
1.219,   1.418e-5
1.220,   1.424e-5
1.221,   1.430e-5
1.222,   1.432e-5
1.223,   1.436e-5
1.224,   1.437e-5
1.225,   1.443e-5
1.226,   1.448e-5
1.227,   1.448e-5
1.228,   1.453e-5
1.229,   1.456e-5
1.230,   1.460e-5
1.231,   1.468e-5
1.232,   1.471e-5
1.233,   1.474e-5
1.234,   1.479e-5
1.235,   1.484e-5
1.236,   1.486e-5
1.237,   1.495e-5
1.238,   1.494e-5
1.239,   1.503e-5
1.240,   1.505e-5
1.241,   1.510e-5
1.242,   1.514e-5
1.243,   1.517e-5
1.244,   1.523e-5
1.245,   1.531e-5
1.246,   1.534e-5
1.247,   1.542e-5
1.248,   1.547e-5
1.249,   1.548e-5
1.250,   1.554e-5
1.251,   1.559e-5
1.252,   1.561e-5
1.253,   1.569e-5
1.254,   1.571e-5
1.255,   1.577e-5
1.256,   1.585e-5
1.257,   1.588e-5
1.258,   1.595e-5
1.259,   1.597e-5
1.260,   1.604e-5
1.261,   1.611e-5
1.262,   1.613e-5
1.263,   1.618e-5
1.264,   1.625e-5
1.265,   1.629e-5
1.266,   1.635e-5
1.267,   1.640e-5
1.268,   1.644e-5
1.269,   1.652e-5
1.270,   1.651e-5
1.271,   1.659e-5
1.272,   1.664e-5
1.273,   1.675e-5
1.274,   1.678e-5
1.275,   1.683e-5
1.276,   1.689e-5
1.277,   1.693e-5
1.278,   1.697e-5
1.279,   1.705e-5
1.280,   1.711e-5
1.281,   1.716e-5
1.282,   1.724e-5
1.283,   1.725e-5
1.284,   1.732e-5
1.285,   1.738e-5
1.286,   1.745e-5
1.287,   1.755e-5
1.288,   1.757e-5
1.289,   1.763e-5
1.290,   1.770e-5
1.291,   1.773e-5
1.292,   1.781e-5
1.293,   1.792e-5
1.294,   1.790e-5
1.295,   1.801e-5
1.296,   1.806e-5
1.297,   1.811e-5
1.298,   1.822e-5
1.299,   1.825e-5
1.300,   1.830e-5
1.301,   1.837e-5
1.302,   1.843e-5
1.303,   1.850e-5
1.304,   1.855e-5
1.305,   1.862e-5
1.306,   1.868e-5
1.307,   1.874e-5
1.308,   1.881e-5
1.309,   1.887e-5
1.310,   1.895e-5
1.311,   1.904e-5
1.312,   1.914e-5
1.313,   1.914e-5
1.314,   1.925e-5
1.315,   1.929e-5
1.316,   1.936e-5
1.317,   1.945e-5
1.318,   1.951e-5
1.319,   1.960e-5
1.320,   1.969e-5
1.321,   1.973e-5
1.322,   1.986e-5
1.323,   1.986e-5
1.324,   2.000e-5
1.325,   2.010e-5
1.326,   2.014e-5
1.327,   2.024e-5
1.328,   2.029e-5
1.329,   2.036e-5
1.330,   2.049e-5
1.331,   2.057e-5
1.332,   2.063e-5
1.333,   2.069e-5
1.334,   2.076e-5
1.335,   2.088e-5
1.336,   2.095e-5
1.337,   2.105e-5
1.338,   2.117e-5
1.339,   2.122e-5
1.340,   2.129e-5
1.341,   2.137e-5
1.342,   2.144e-5
1.343,   2.154e-5
1.344,   2.163e-5
1.345,   2.170e-5
1.346,   2.183e-5
1.347,   2.192e-5
1.348,   2.200e-5
1.349,   2.210e-5
1.350,   2.223e-5
1.351,   2.233e-5
1.352,   2.242e-5
1.353,   2.250e-5
1.354,   2.262e-5
1.355,   2.270e-5
1.356,   2.282e-5
1.357,   2.292e-5
1.358,   2.300e-5
1.359,   2.311e-5
1.360,   2.324e-5
1.361,   2.332e-5
1.362,   2.347e-5
1.363,   2.358e-5
1.364,   2.367e-5
1.365,   2.378e-5
1.366,   2.389e-5
1.367,   2.402e-5
1.368,   2.411e-5
1.369,   2.422e-5
1.370,   2.438e-5
1.371,   2.446e-5
1.372,   2.458e-5
1.373,   2.474e-5
1.374,   2.482e-5
1.375,   2.495e-5
1.376,   2.511e-5
1.377,   2.521e-5
1.378,   2.532e-5
1.379,   2.545e-5
1.380,   2.560e-5
1.381,   2.570e-5
1.382,   2.583e-5
1.383,   2.598e-5
1.384,   2.611e-5
1.385,   2.623e-5
1.386,   2.641e-5
1.387,   2.654e-5
1.388,   2.672e-5
1.389,   2.688e-5
1.390,   2.697e-5
1.391,   2.713e-5
1.392,   2.725e-5
1.393,   2.739e-5
1.394,   2.757e-5
1.395,   2.770e-5
1.396,   2.786e-5
1.397,   2.803e-5
1.398,   2.821e-5
1.399,   2.841e-5
1.400,   2.857e-5
1.401,   2.873e-5
1.402,   2.894e-5
1.403,   2.912e-5
1.404,   2.935e-5
1.405,   2.955e-5
1.406,   2.978e-5
1.407,   3.004e-5
1.408,   3.025e-5
1.409,   3.050e-5
1.410,   3.077e-5
1.411,   3.098e-5
1.412,   3.127e-5
1.413,   3.157e-5
1.414,   3.185e-5
1.415,   3.220e-5
1.416,   3.249e-5
1.417,   3.284e-5
1.418,   3.321e-5
1.419,   3.352e-5
1.420,   3.396e-5
1.421,   3.440e-5
1.422,   3.476e-5
1.423,   3.524e-5
1.424,   3.568e-5
1.425,   3.613e-5
1.426,   3.665e-5
1.427,   3.716e-5
1.428,   3.769e-5
1.429,   3.819e-5
1.430,   3.878e-5
1.431,   3.944e-5
1.432,   4.012e-5
1.433,   4.078e-5
1.434,   4.154e-5
1.435,   4.226e-5
1.436,   4.306e-5
1.437,   4.393e-5
1.438,   4.476e-5
1.439,   4.575e-5
1.440,   4.673e-5
1.441,   4.771e-5
1.442,   4.878e-5
1.443,   4.985e-5
1.444,   5.103e-5
1.445,   5.224e-5
1.446,   5.350e-5
1.447,   5.478e-5
1.448,   5.615e-5
1.449,   5.760e-5
1.450,   5.915e-5
1.451,   6.070e-5
1.452,   6.235e-5
1.453,   6.409e-5
1.454,   6.587e-5
1.455,   6.773e-5
1.456,   6.968e-5
1.457,   7.169e-5
1.458,   7.383e-5
1.459,   7.604e-5
1.460,   7.839e-5
1.461,   8.077e-5
1.462,   8.321e-5
1.463,   8.584e-5
1.464,   8.846e-5
1.465,   9.123e-5
1.466,   9.415e-5
1.467,   9.708e-5
1.468,   1.002e-4
1.469,   1.034e-4
1.470,   1.068e-4
1.471,   1.103e-4
1.472,   1.139e-4
1.473,   1.176e-4
1.474,   1.215e-4
1.475,   1.255e-4
1.476,   1.296e-4
1.477,   1.339e-4
1.478,   1.383e-4
1.479,   1.429e-4
1.480,   1.476e-4
1.481,   1.525e-4
1.482,   1.577e-4
1.483,   1.629e-4
1.484,   1.684e-4
1.485,   1.744e-4
1.486,   1.803e-4
1.487,   1.864e-4
1.488,   1.926e-4
1.489,   1.988e-4
1.490,   2.054e-4
1.491,   2.122e-4
1.492,   2.192e-4
1.493,   2.264e-4
1.494,   2.339e-4
1.495,   2.415e-4
1.496,   2.492e-4
1.497,   2.572e-4
1.498,   2.654e-4
1.499,   2.738e-4
1.500,   2.823e-4
1.501,   2.912e-4
1.502,   3.005e-4
1.503,   3.102e-4
1.504,   3.200e-4
1.505,   3.298e-4
1.506,   3.398e-4
1.507,   3.500e-4
1.508,   3.608e-4
1.509,   3.717e-4
1.510,   3.828e-4
1.511,   3.943e-4
1.512,   4.061e-4
1.513,   4.181e-4
1.514,   4.303e-4
1.515,   4.428e-4
1.516,   4.554e-4
1.517,   4.684e-4
1.518,   4.822e-4
1.519,   4.962e-4
1.520,   5.101e-4
1.521,   5.243e-4
1.522,   5.388e-4
1.523,   5.536e-4
1.524,   5.686e-4
1.525,   5.838e-4
1.526,   5.995e-4
1.527,   6.156e-4
1.528,   6.319e-4
1.529,   6.484e-4
1.530,   6.651e-4
1.531,   6.829e-4
1.532,   7.006e-4
1.533,   7.180e-4
1.534,   7.363e-4
1.535,   7.551e-4
1.536,   7.742e-4
1.537,   7.938e-4
1.538,   8.134e-4
1.539,   8.330e-4
1.540,   8.530e-4
1.541,   8.731e-4
1.542,   8.937e-4
1.543,   9.148e-4
1.544,   9.369e-4
1.545,   9.584e-4
1.546,   9.804e-4
1.547,   1.003e-3
1.548,   1.027e-3
1.549,   1.050e-3
1.550,   1.073e-3
1.551,   1.097e-3
1.552,   1.121e-3
1.553,   1.145e-3
1.554,   1.170e-3
1.555,   1.195e-3
1.556,   1.221e-3
1.557,   1.246e-3
1.558,   1.272e-3
1.559,   1.299e-3
1.560,   1.327e-3
1.561,   1.354e-3
1.562,   1.382e-3
1.563,   1.409e-3
1.564,   1.438e-3
1.565,   1.467e-3
1.566,   1.496e-3
1.567,   1.526e-3
1.568,   1.555e-3
1.569,   1.585e-3
1.570,   1.616e-3
1.571,   1.647e-3
1.572,   1.679e-3
1.573,   1.710e-3
1.574,   1.742e-3
1.575,   1.773e-3
1.576,   1.808e-3
1.577,   1.843e-3
1.578,   1.876e-3
1.579,   1.910e-3
1.580,   1.944e-3
1.581,   1.979e-3
1.582,   2.015e-3
1.583,   2.050e-3
1.584,   2.086e-3
1.585,   2.123e-3
1.586,   2.160e-3
1.587,   2.197e-3
1.588,   2.233e-3
1.589,   2.272e-3
1.590,   2.311e-3
1.591,   2.352e-3
1.592,   2.392e-3
1.593,   2.430e-3
1.594,   2.470e-3
1.595,   2.509e-3
1.596,   2.551e-3
1.597,   2.592e-3
1.598,   2.632e-3
1.599,   2.672e-3
1.600,   2.716e-3
1.601,   2.761e-3
1.602,   2.804e-3
1.603,   2.846e-3
1.604,   2.888e-3
1.605,   2.933e-3
1.606,   2.977e-3
1.607,   3.023e-3
1.608,   3.071e-3
1.609,   3.119e-3
1.610,   3.170e-3
1.611,   3.218e-3
1.612,   3.266e-3
1.613,   3.314e-3
1.614,   3.361e-3
1.615,   3.409e-3
1.616,   3.458e-3
1.617,   3.511e-3
1.618,   3.565e-3
1.619,   3.612e-3
1.620,   3.664e-3
1.621,   3.709e-3
1.622,   3.760e-3
1.623,   3.814e-3
1.624,   3.868e-3
1.625,   3.922e-3
1.626,   3.972e-3
1.627,   4.023e-3
1.628,   4.077e-3
1.629,   4.134e-3
1.630,   4.188e-3
1.631,   4.245e-3
1.632,   4.302e-3
1.633,   4.357e-3
1.634,   4.414e-3
1.635,   4.468e-3
1.636,   4.530e-3
1.637,   4.587e-3
1.638,   4.646e-3
1.639,   4.701e-3
1.640,   4.758e-3
1.641,   4.824e-3
1.642,   4.885e-3
1.643,   4.941e-3
1.644,   5.005e-3
1.645,   5.070e-3
1.646,   5.130e-3
1.647,   5.189e-3
1.648,   5.253e-3
1.649,   5.318e-3
1.650,   5.380e-3
1.651,   5.436e-3
1.652,   5.498e-3
1.653,   5.571e-3
1.654,   5.633e-3
1.655,   5.696e-3
1.656,   5.754e-3
1.657,   5.820e-3
1.658,   5.889e-3
1.659,   5.952e-3
1.660,   6.012e-3
1.661,   6.081e-3
1.662,   6.145e-3
1.663,   6.213e-3
1.664,   6.283e-3
1.665,   6.350e-3
1.666,   6.414e-3
1.667,   6.476e-3
1.668,   6.551e-3
1.669,   6.613e-3
1.670,   6.682e-3
1.671,   6.762e-3
1.672,   6.828e-3
1.673,   6.904e-3
1.674,   6.964e-3
1.675,   7.037e-3
1.676,   7.110e-3
1.677,   7.175e-3
1.678,   7.240e-3
1.679,   7.311e-3
1.680,   7.384e-3
1.681,   7.455e-3
1.682,   7.515e-3
1.683,   7.594e-3
1.684,   7.668e-3
1.685,   7.736e-3
1.686,   7.807e-3
1.687,   7.871e-3
1.688,   7.931e-3
1.689,   7.998e-3
1.690,   8.074e-3
1.691,   8.140e-3
1.692,   8.223e-3
1.693,   8.291e-3
1.694,   8.358e-3
1.695,   8.430e-3
1.696,   8.502e-3
1.697,   8.576e-3
1.698,   8.647e-3
1.699,   8.723e-3
1.700,   8.794e-3
1.701,   8.857e-3
1.702,   8.924e-3
1.703,   8.999e-3
1.704,   9.052e-3
1.705,   9.128e-3
1.706,   9.203e-3
1.707,   9.277e-3
1.708,   9.344e-3
1.709,   9.415e-3
1.710,   9.470e-3
1.711,   9.543e-3
1.712,   9.599e-3
1.713,   9.702e-3
1.714,   9.756e-3
1.715,   9.827e-3
1.716,   9.892e-3
1.717,   9.961e-3
1.718,   1.003e-2
1.719,   1.006e-2
1.720,   1.006e-2
1.721,   1.006e-2
1.722,   1.006e-2
1.723,   1.006e-2
1.724,   1.006e-2
1.725,   1.006e-2
1.726,   1.006e-2
1.727,   1.006e-2
1.728,   1.006e-2
1.729,   1.006e-2
1.730,   1.006e-2
1.731,   1.006e-2
1.732,   1.006e-2
1.733,   1.006e-2
1.734,   1.006e-2
1.735,   1.006e-2
1.736,   1.006e-2
1.737,   1.006e-2
1.738,   1.006e-2
1.739,   1.006e-2
1.740,   1.006e-2
1.741,   1.006e-2
1.742,   1.006e-2
1.743,   1.006e-2
1.744,   1.006e-2
1.745,   1.006e-2
1.746,   1.006e-2
1.747,   1.006e-2
1.748,   1.006e-2
1.749,   1.006e-2
1.750,   1.006e-2
1.751,   1.006e-2
1.752,   1.006e-2
1.753,   1.006e-2
1.754,   1.006e-2