File: Experimental Records and Raw Data/batch2/final500/B2_VARIANCE_500#6_High_Quality-311mV.txt
Jan. 18, 2023   16:20:27
Linear Sweep Voltammetry
File: d:\current work\al_oer\electrochemical test data\batch 2\500\B2_VARIANCE_500#6_High_Quality-311mV.txt
Data Source:  Experiment
Instrument Model:  CHI660E
Header:
Note:

Init E (V) = 1.098

Final E (V) = 1.669

Scan Rate (V/s) = 0.010
Sample Interval (V) = 0.001
Quiet Time (sec) = 2
Sensitivity (A/V) = 0.001
Comp R (ohm) = 5.1

Results:

Channel 1:

Potential/V, Current/A
1.098,   9.556e-5
1.099,   9.093e-5
1.100,   8.487e-5
1.101,   7.920e-5
1.102,   7.422e-5
1.103,   6.976e-5
1.104,   6.587e-5
1.105,   6.235e-5
1.106,   5.923e-5
1.107,   5.641e-5
1.108,   5.382e-5
1.109,   5.152e-5
1.110,   4.945e-5
1.111,   4.748e-5
1.112,   4.574e-5
1.113,   4.417e-5
1.114,   4.263e-5
1.115,   4.129e-5
1.116,   4.002e-5
1.117,   3.890e-5
1.118,   3.790e-5
1.119,   3.696e-5
1.120,   3.593e-5
1.121,   3.511e-5
1.122,   3.421e-5
1.123,   3.352e-5
1.124,   3.284e-5
1.125,   3.216e-5
1.126,   3.158e-5
1.127,   3.109e-5
1.128,   3.048e-5
1.129,   3.003e-5
1.130,   2.957e-5
1.131,   2.908e-5
1.132,   2.874e-5
1.133,   2.830e-5
1.134,   2.792e-5
1.135,   2.761e-5
1.136,   2.728e-5
1.137,   2.697e-5
1.138,   2.671e-5
1.139,   2.642e-5
1.140,   2.618e-5
1.141,   2.589e-5
1.142,   2.567e-5
1.143,   2.546e-5
1.144,   2.528e-5
1.145,   2.509e-5
1.146,   2.487e-5
1.147,   2.471e-5
1.148,   2.459e-5
1.149,   2.435e-5
1.150,   2.426e-5
1.151,   2.410e-5
1.152,   2.399e-5
1.153,   2.391e-5
1.154,   2.370e-5
1.155,   2.364e-5
1.156,   2.358e-5
1.157,   2.340e-5
1.158,   2.333e-5
1.159,   2.327e-5
1.160,   2.312e-5
1.161,   2.310e-5
1.162,   2.294e-5
1.163,   2.287e-5
1.164,   2.284e-5
1.165,   2.279e-5
1.166,   2.276e-5
1.167,   2.271e-5
1.168,   2.265e-5
1.169,   2.257e-5
1.170,   2.253e-5
1.171,   2.253e-5
1.172,   2.252e-5
1.173,   2.247e-5
1.174,   2.246e-5
1.175,   2.239e-5
1.176,   2.238e-5
1.177,   2.237e-5
1.178,   2.229e-5
1.179,   2.229e-5
1.180,   2.224e-5
1.181,   2.219e-5
1.182,   2.225e-5
1.183,   2.227e-5
1.184,   2.218e-5
1.185,   2.227e-5
1.186,   2.217e-5
1.187,   2.217e-5
1.188,   2.223e-5
1.189,   2.218e-5
1.190,   2.220e-5
1.191,   2.219e-5
1.192,   2.221e-5
1.193,   2.221e-5
1.194,   2.221e-5
1.195,   2.224e-5
1.196,   2.224e-5
1.197,   2.230e-5
1.198,   2.224e-5
1.199,   2.228e-5
1.200,   2.229e-5
1.201,   2.228e-5
1.202,   2.226e-5
1.203,   2.235e-5
1.204,   2.232e-5
1.205,   2.237e-5
1.206,   2.242e-5
1.207,   2.237e-5
1.208,   2.243e-5
1.209,   2.250e-5
1.210,   2.238e-5
1.211,   2.248e-5
1.212,   2.255e-5
1.213,   2.250e-5
1.214,   2.259e-5
1.215,   2.261e-5
1.216,   2.260e-5
1.217,   2.271e-5
1.218,   2.264e-5
1.219,   2.266e-5
1.220,   2.274e-5
1.221,   2.282e-5
1.222,   2.278e-5
1.223,   2.282e-5
1.224,   2.282e-5
1.225,   2.288e-5
1.226,   2.293e-5
1.227,   2.291e-5
1.228,   2.295e-5
1.229,   2.296e-5
1.230,   2.300e-5
1.231,   2.304e-5
1.232,   2.309e-5
1.233,   2.314e-5
1.234,   2.309e-5
1.235,   2.316e-5
1.236,   2.320e-5
1.237,   2.315e-5
1.238,   2.329e-5
1.239,   2.328e-5
1.240,   2.331e-5
1.241,   2.342e-5
1.242,   2.337e-5
1.243,   2.342e-5
1.244,   2.353e-5
1.245,   2.342e-5
1.246,   2.351e-5
1.247,   2.360e-5
1.248,   2.359e-5
1.249,   2.366e-5
1.250,   2.362e-5
1.251,   2.367e-5
1.252,   2.372e-5
1.253,   2.376e-5
1.254,   2.375e-5
1.255,   2.378e-5
1.256,   2.386e-5
1.257,   2.389e-5
1.258,   2.388e-5
1.259,   2.398e-5
1.260,   2.400e-5
1.261,   2.401e-5
1.262,   2.410e-5
1.263,   2.407e-5
1.264,   2.413e-5
1.265,   2.421e-5
1.266,   2.422e-5
1.267,   2.427e-5
1.268,   2.436e-5
1.269,   2.427e-5
1.270,   2.434e-5
1.271,   2.437e-5
1.272,   2.442e-5
1.273,   2.449e-5
1.274,   2.449e-5
1.275,   2.450e-5
1.276,   2.462e-5
1.277,   2.460e-5
1.278,   2.465e-5
1.279,   2.476e-5
1.280,   2.476e-5
1.281,   2.482e-5
1.282,   2.485e-5
1.283,   2.490e-5
1.284,   2.501e-5
1.285,   2.502e-5
1.286,   2.505e-5
1.287,   2.505e-5
1.288,   2.512e-5
1.289,   2.516e-5
1.290,   2.521e-5
1.291,   2.533e-5
1.292,   2.531e-5
1.293,   2.535e-5
1.294,   2.547e-5
1.295,   2.550e-5
1.296,   2.553e-5
1.297,   2.564e-5
1.298,   2.566e-5
1.299,   2.572e-5
1.300,   2.579e-5
1.301,   2.580e-5
1.302,   2.594e-5
1.303,   2.596e-5
1.304,   2.600e-5
1.305,   2.615e-5
1.306,   2.611e-5
1.307,   2.617e-5
1.308,   2.637e-5
1.309,   2.634e-5
1.310,   2.642e-5
1.311,   2.656e-5
1.312,   2.661e-5
1.313,   2.668e-5
1.314,   2.680e-5
1.315,   2.683e-5
1.316,   2.695e-5
1.317,   2.704e-5
1.318,   2.709e-5
1.319,   2.718e-5
1.320,   2.728e-5
1.321,   2.738e-5
1.322,   2.743e-5
1.323,   2.763e-5
1.324,   2.766e-5
1.325,   2.780e-5
1.326,   2.798e-5
1.327,   2.803e-5
1.328,   2.817e-5
1.329,   2.833e-5
1.330,   2.832e-5
1.331,   2.848e-5
1.332,   2.870e-5
1.333,   2.872e-5
1.334,   2.891e-5
1.335,   2.906e-5
1.336,   2.920e-5
1.337,   2.944e-5
1.338,   2.952e-5
1.339,   2.967e-5
1.340,   2.990e-5
1.341,   2.994e-5
1.342,   3.012e-5
1.343,   3.035e-5
1.344,   3.052e-5
1.345,   3.066e-5
1.346,   3.080e-5
1.347,   3.100e-5
1.348,   3.125e-5
1.349,   3.145e-5
1.350,   3.162e-5
1.351,   3.181e-5
1.352,   3.200e-5
1.353,   3.221e-5
1.354,   3.243e-5
1.355,   3.264e-5
1.356,   3.282e-5
1.357,   3.303e-5
1.358,   3.333e-5
1.359,   3.348e-5
1.360,   3.379e-5
1.361,   3.406e-5
1.362,   3.418e-5
1.363,   3.450e-5
1.364,   3.471e-5
1.365,   3.491e-5
1.366,   3.525e-5
1.367,   3.549e-5
1.368,   3.578e-5
1.369,   3.614e-5
1.370,   3.631e-5
1.371,   3.659e-5
1.372,   3.690e-5
1.373,   3.710e-5
1.374,   3.744e-5
1.375,   3.779e-5
1.376,   3.802e-5
1.377,   3.833e-5
1.378,   3.866e-5
1.379,   3.894e-5
1.380,   3.931e-5
1.381,   3.960e-5
1.382,   3.993e-5
1.383,   4.034e-5
1.384,   4.061e-5
1.385,   4.095e-5
1.386,   4.131e-5
1.387,   4.170e-5
1.388,   4.212e-5
1.389,   4.245e-5
1.390,   4.284e-5
1.391,   4.319e-5
1.392,   4.365e-5
1.393,   4.410e-5
1.394,   4.442e-5
1.395,   4.490e-5
1.396,   4.543e-5
1.397,   4.575e-5
1.398,   4.633e-5
1.399,   4.678e-5
1.400,   4.724e-5
1.401,   4.789e-5
1.402,   4.834e-5
1.403,   4.886e-5
1.404,   4.948e-5
1.405,   5.003e-5
1.406,   5.067e-5
1.407,   5.130e-5
1.408,   5.195e-5
1.409,   5.258e-5
1.410,   5.329e-5
1.411,   5.395e-5
1.412,   5.475e-5
1.413,   5.554e-5
1.414,   5.632e-5
1.415,   5.717e-5
1.416,   5.811e-5
1.417,   5.897e-5
1.418,   5.990e-5
1.419,   6.093e-5
1.420,   6.198e-5
1.421,   6.299e-5
1.422,   6.416e-5
1.423,   6.531e-5
1.424,   6.652e-5
1.425,   6.791e-5
1.426,   6.930e-5
1.427,   7.067e-5
1.428,   7.222e-5
1.429,   7.359e-5
1.430,   7.530e-5
1.431,   7.706e-5
1.432,   7.865e-5
1.433,   8.058e-5
1.434,   8.247e-5
1.435,   8.446e-5
1.436,   8.664e-5
1.437,   8.875e-5
1.438,   9.098e-5
1.439,   9.344e-5
1.440,   9.584e-5
1.441,   9.842e-5
1.442,   1.012e-4
1.443,   1.040e-4
1.444,   1.069e-4
1.445,   1.100e-4
1.446,   1.133e-4
1.447,   1.166e-4
1.448,   1.201e-4
1.449,   1.238e-4
1.450,   1.275e-4
1.451,   1.315e-4
1.452,   1.356e-4
1.453,   1.398e-4
1.454,   1.444e-4
1.455,   1.490e-4
1.456,   1.537e-4
1.457,   1.590e-4
1.458,   1.640e-4
1.459,   1.694e-4
1.460,   1.752e-4
1.461,   1.810e-4
1.462,   1.871e-4
1.463,   1.935e-4
1.464,   2.000e-4
1.465,   2.068e-4
1.466,   2.138e-4
1.467,   2.211e-4
1.468,   2.288e-4
1.469,   2.366e-4
1.470,   2.448e-4
1.471,   2.532e-4
1.472,   2.621e-4
1.473,   2.712e-4
1.474,   2.805e-4
1.475,   2.904e-4
1.476,   3.003e-4
1.477,   3.108e-4
1.478,   3.216e-4
1.479,   3.326e-4
1.480,   3.441e-4
1.481,   3.558e-4
1.482,   3.678e-4
1.483,   3.804e-4
1.484,   3.934e-4
1.485,   4.068e-4
1.486,   4.206e-4
1.487,   4.347e-4
1.488,   4.493e-4
1.489,   4.643e-4
1.490,   4.796e-4
1.491,   4.955e-4
1.492,   5.118e-4
1.493,   5.283e-4
1.494,   5.455e-4
1.495,   5.632e-4
1.496,   5.811e-4
1.497,   5.999e-4
1.498,   6.187e-4
1.499,   6.382e-4
1.500,   6.580e-4
1.501,   6.782e-4
1.502,   6.990e-4
1.503,   7.205e-4
1.504,   7.425e-4
1.505,   7.650e-4
1.506,   7.880e-4
1.507,   8.115e-4
1.508,   8.351e-4
1.509,   8.595e-4
1.510,   8.845e-4
1.511,   9.097e-4
1.512,   9.354e-4
1.513,   9.620e-4
1.514,   9.890e-4
1.515,   1.017e-3
1.516,   1.045e-3
1.517,   1.073e-3
1.518,   1.103e-3
1.519,   1.132e-3
1.520,   1.162e-3
1.521,   1.193e-3
1.522,   1.224e-3
1.523,   1.256e-3
1.524,   1.288e-3
1.525,   1.321e-3
1.526,   1.354e-3
1.527,   1.387e-3
1.528,   1.422e-3
1.529,   1.457e-3
1.530,   1.493e-3
1.531,   1.529e-3
1.532,   1.565e-3
1.533,   1.603e-3
1.534,   1.640e-3
1.535,   1.679e-3
1.536,   1.717e-3
1.537,   1.756e-3
1.538,   1.795e-3
1.539,   1.836e-3
1.540,   1.876e-3
1.541,   1.917e-3
1.542,   1.961e-3
1.543,   2.004e-3
1.544,   2.048e-3
1.545,   2.092e-3
1.546,   2.135e-3
1.547,   2.181e-3
1.548,   2.227e-3
1.549,   2.273e-3
1.550,   2.320e-3
1.551,   2.367e-3
1.552,   2.414e-3
1.553,   2.463e-3
1.554,   2.511e-3
1.555,   2.558e-3
1.556,   2.607e-3
1.557,   2.657e-3
1.558,   2.706e-3
1.559,   2.758e-3
1.560,   2.809e-3
1.561,   2.859e-3
1.562,   2.912e-3
1.563,   2.965e-3
1.564,   3.017e-3
1.565,   3.071e-3
1.566,   3.129e-3
1.567,   3.185e-3
1.568,   3.242e-3
1.569,   3.296e-3
1.570,   3.355e-3
1.571,   3.420e-3
1.572,   3.477e-3
1.573,   3.534e-3
1.574,   3.589e-3
1.575,   3.650e-3
1.576,   3.710e-3
1.577,   3.770e-3
1.578,   3.834e-3
1.579,   3.897e-3
1.580,   3.955e-3
1.581,   4.015e-3
1.582,   4.078e-3
1.583,   4.142e-3
1.584,   4.212e-3
1.585,   4.268e-3
1.586,   4.331e-3
1.587,   4.394e-3
1.588,   4.475e-3
1.589,   4.542e-3
1.590,   4.606e-3
1.591,   4.679e-3
1.592,   4.755e-3
1.593,   4.824e-3
1.594,   4.905e-3
1.595,   4.970e-3
1.596,   5.044e-3
1.597,   5.107e-3
1.598,   5.171e-3
1.599,   5.237e-3
1.600,   5.304e-3
1.601,   5.370e-3
1.602,   5.440e-3
1.603,   5.508e-3
1.604,   5.581e-3
1.605,   5.654e-3
1.606,   5.737e-3
1.607,   5.850e-3
1.608,   5.934e-3
1.609,   6.039e-3
1.610,   6.120e-3
1.611,   6.267e-3
1.612,   6.440e-3
1.613,   6.505e-3
1.614,   6.583e-3
1.615,   6.666e-3
1.616,   6.731e-3
1.617,   6.793e-3
1.618,   6.859e-3
1.619,   6.938e-3
1.620,   7.014e-3
1.621,   7.119e-3
1.622,   7.208e-3
1.623,   7.299e-3
1.624,   7.379e-3
1.625,   7.450e-3
1.626,   7.518e-3
1.627,   7.658e-3
1.628,   7.791e-3
1.629,   7.869e-3
1.630,   7.961e-3
1.631,   8.051e-3
1.632,   8.128e-3
1.633,   8.201e-3
1.634,   8.283e-3
1.635,   8.367e-3
1.636,   8.458e-3
1.637,   8.579e-3
1.638,   8.639e-3
1.639,   8.754e-3
1.640,   8.861e-3
1.641,   8.981e-3
1.642,   9.121e-3
1.643,   9.299e-3
1.644,   9.447e-3
1.645,   9.566e-3
1.646,   9.632e-3
1.647,   9.716e-3
1.648,   9.802e-3
1.649,   9.888e-3
1.650,   9.964e-3
1.651,   1.004e-2
1.652,   1.007e-2
1.653,   1.007e-2
1.654,   1.007e-2
1.655,   1.007e-2
1.656,   1.007e-2
1.657,   1.007e-2
1.658,   1.007e-2
1.659,   1.007e-2
1.660,   1.007e-2
1.661,   1.007e-2
1.662,   1.007e-2
1.663,   1.007e-2
1.664,   1.007e-2
1.665,   1.007e-2
1.666,   1.007e-2
1.667,   1.007e-2
1.668,   1.007e-2
1.669,   1.007e-2