File: Experimental Records and Raw Data/batch2/final500/B2_VARIANCE_500#16_Full-321mV.txt
Jan. 19, 2023   13:24:56
Linear Sweep Voltammetry
File: d:\current work\al_oer\electrochemical test data\batch 2\500\B2_VARIANCE_500#16_Full-321mV.txt
Data Source:  Experiment
Instrument Model:  CHI660E
Header:
Note:

Init E (V) = 1.101

Final E (V) = 1.703

Scan Rate (V/s) = 0.010
Sample Interval (V) = 0.001
Quiet Time (sec) = 2
Sensitivity (A/V) = 0.001
Comp R (ohm) = 5.7

Results:

Channel 1:

Potential/V, Current/A
1.101,   3.096e-5
1.102,   2.962e-5
1.103,   2.764e-5
1.104,   2.582e-5
1.105,   2.425e-5
1.106,   2.278e-5
1.107,   2.161e-5
1.108,   2.055e-5
1.109,   1.954e-5
1.110,   1.867e-5
1.111,   1.793e-5
1.112,   1.723e-5
1.113,   1.662e-5
1.114,   1.610e-5
1.115,   1.561e-5
1.116,   1.513e-5
1.117,   1.465e-5
1.118,   1.425e-5
1.119,   1.388e-5
1.120,   1.357e-5
1.121,   1.328e-5
1.122,   1.300e-5
1.123,   1.271e-5
1.124,   1.249e-5
1.125,   1.229e-5
1.126,   1.203e-5
1.127,   1.189e-5
1.128,   1.171e-5
1.129,   1.154e-5
1.130,   1.134e-5
1.131,   1.120e-5
1.132,   1.108e-5
1.133,   1.093e-5
1.134,   1.081e-5
1.135,   1.072e-5
1.136,   1.057e-5
1.137,   1.052e-5
1.138,   1.040e-5
1.139,   1.032e-5
1.140,   1.026e-5
1.141,   1.016e-5
1.142,   1.008e-5
1.143,   1.002e-5
1.144,   9.962e-6
1.145,   9.882e-6
1.146,   9.826e-6
1.147,   9.794e-6
1.148,   9.721e-6
1.149,   9.703e-6
1.150,   9.634e-6
1.151,   9.590e-6
1.152,   9.532e-6
1.153,   9.519e-6
1.154,   9.490e-6
1.155,   9.442e-6
1.156,   9.450e-6
1.157,   9.403e-6
1.158,   9.391e-6
1.159,   9.375e-6
1.160,   9.332e-6
1.161,   9.298e-6
1.162,   9.283e-6
1.163,   9.276e-6
1.164,   9.251e-6
1.165,   9.237e-6
1.166,   9.228e-6
1.167,   9.236e-6
1.168,   9.248e-6
1.169,   9.262e-6
1.170,   9.246e-6
1.171,   9.192e-6
1.172,   9.187e-6
1.173,   9.185e-6
1.174,   9.185e-6
1.175,   9.174e-6
1.176,   9.193e-6
1.177,   9.220e-6
1.178,   9.203e-6
1.179,   9.196e-6
1.180,   9.236e-6
1.181,   9.221e-6
1.182,   9.214e-6
1.183,   9.246e-6
1.184,   9.222e-6
1.185,   9.252e-6
1.186,   9.262e-6
1.187,   9.250e-6
1.188,   9.262e-6
1.189,   9.253e-6
1.190,   9.321e-6
1.191,   9.320e-6
1.192,   9.311e-6
1.193,   9.350e-6
1.194,   9.363e-6
1.195,   9.336e-6
1.196,   9.387e-6
1.197,   9.360e-6
1.198,   9.401e-6
1.199,   9.463e-6
1.200,   9.440e-6
1.201,   9.465e-6
1.202,   9.500e-6
1.203,   9.515e-6
1.204,   9.532e-6
1.205,   9.576e-6
1.206,   9.577e-6
1.207,   9.611e-6
1.208,   9.615e-6
1.209,   9.659e-6
1.210,   9.656e-6
1.211,   9.681e-6
1.212,   9.723e-6
1.213,   9.721e-6
1.214,   9.759e-6
1.215,   9.777e-6
1.216,   9.789e-6
1.217,   9.837e-6
1.218,   9.888e-6
1.219,   9.874e-6
1.220,   9.896e-6
1.221,   9.942e-6
1.222,   9.969e-6
1.223,   9.971e-6
1.224,   1.000e-5
1.225,   1.003e-5
1.226,   1.007e-5
1.227,   1.010e-5
1.228,   1.016e-5
1.229,   1.014e-5
1.230,   1.018e-5
1.231,   1.025e-5
1.232,   1.022e-5
1.233,   1.025e-5
1.234,   1.029e-5
1.235,   1.029e-5
1.236,   1.033e-5
1.237,   1.038e-5
1.238,   1.038e-5
1.239,   1.042e-5
1.240,   1.046e-5
1.241,   1.048e-5
1.242,   1.054e-5
1.243,   1.054e-5
1.244,   1.058e-5
1.245,   1.058e-5
1.246,   1.057e-5
1.247,   1.061e-5
1.248,   1.064e-5
1.249,   1.070e-5
1.250,   1.071e-5
1.251,   1.071e-5
1.252,   1.075e-5
1.253,   1.078e-5
1.254,   1.082e-5
1.255,   1.085e-5
1.256,   1.088e-5
1.257,   1.090e-5
1.258,   1.091e-5
1.259,   1.094e-5
1.260,   1.099e-5
1.261,   1.098e-5
1.262,   1.102e-5
1.263,   1.106e-5
1.264,   1.107e-5
1.265,   1.107e-5
1.266,   1.114e-5
1.267,   1.115e-5
1.268,   1.121e-5
1.269,   1.123e-5
1.270,   1.126e-5
1.271,   1.131e-5
1.272,   1.132e-5
1.273,   1.136e-5
1.274,   1.138e-5
1.275,   1.142e-5
1.276,   1.149e-5
1.277,   1.149e-5
1.278,   1.155e-5
1.279,   1.158e-5
1.280,   1.156e-5
1.281,   1.162e-5
1.282,   1.166e-5
1.283,   1.171e-5
1.284,   1.177e-5
1.285,   1.175e-5
1.286,   1.179e-5
1.287,   1.184e-5
1.288,   1.190e-5
1.289,   1.193e-5
1.290,   1.194e-5
1.291,   1.202e-5
1.292,   1.208e-5
1.293,   1.208e-5
1.294,   1.214e-5
1.295,   1.220e-5
1.296,   1.226e-5
1.297,   1.229e-5
1.298,   1.231e-5
1.299,   1.234e-5
1.300,   1.243e-5
1.301,   1.244e-5
1.302,   1.252e-5
1.303,   1.258e-5
1.304,   1.261e-5
1.305,   1.268e-5
1.306,   1.277e-5
1.307,   1.281e-5
1.308,   1.289e-5
1.309,   1.291e-5
1.310,   1.299e-5
1.311,   1.303e-5
1.312,   1.307e-5
1.313,   1.316e-5
1.314,   1.325e-5
1.315,   1.331e-5
1.316,   1.337e-5
1.317,   1.342e-5
1.318,   1.350e-5
1.319,   1.358e-5
1.320,   1.368e-5
1.321,   1.375e-5
1.322,   1.381e-5
1.323,   1.390e-5
1.324,   1.402e-5
1.325,   1.408e-5
1.326,   1.421e-5
1.327,   1.430e-5
1.328,   1.436e-5
1.329,   1.447e-5
1.330,   1.458e-5
1.331,   1.469e-5
1.332,   1.481e-5
1.333,   1.487e-5
1.334,   1.498e-5
1.335,   1.511e-5
1.336,   1.520e-5
1.337,   1.536e-5
1.338,   1.541e-5
1.339,   1.556e-5
1.340,   1.570e-5
1.341,   1.579e-5
1.342,   1.599e-5
1.343,   1.612e-5
1.344,   1.624e-5
1.345,   1.638e-5
1.346,   1.650e-5
1.347,   1.665e-5
1.348,   1.679e-5
1.349,   1.693e-5
1.350,   1.705e-5
1.351,   1.725e-5
1.352,   1.740e-5
1.353,   1.753e-5
1.354,   1.766e-5
1.355,   1.786e-5
1.356,   1.807e-5
1.357,   1.822e-5
1.358,   1.837e-5
1.359,   1.855e-5
1.360,   1.870e-5
1.361,   1.892e-5
1.362,   1.912e-5
1.363,   1.925e-5
1.364,   1.949e-5
1.365,   1.968e-5
1.366,   1.987e-5
1.367,   2.007e-5
1.368,   2.029e-5
1.369,   2.052e-5
1.370,   2.075e-5
1.371,   2.096e-5
1.372,   2.119e-5
1.373,   2.139e-5
1.374,   2.158e-5
1.375,   2.185e-5
1.376,   2.209e-5
1.377,   2.231e-5
1.378,   2.262e-5
1.379,   2.286e-5
1.380,   2.308e-5
1.381,   2.331e-5
1.382,   2.361e-5
1.383,   2.390e-5
1.384,   2.410e-5
1.385,   2.441e-5
1.386,   2.473e-5
1.387,   2.502e-5
1.388,   2.534e-5
1.389,   2.565e-5
1.390,   2.597e-5
1.391,   2.632e-5
1.392,   2.666e-5
1.393,   2.697e-5
1.394,   2.732e-5
1.395,   2.768e-5
1.396,   2.805e-5
1.397,   2.846e-5
1.398,   2.889e-5
1.399,   2.930e-5
1.400,   2.966e-5
1.401,   3.008e-5
1.402,   3.056e-5
1.403,   3.105e-5
1.404,   3.153e-5
1.405,   3.201e-5
1.406,   3.257e-5
1.407,   3.312e-5
1.408,   3.368e-5
1.409,   3.430e-5
1.410,   3.492e-5
1.411,   3.557e-5
1.412,   3.624e-5
1.413,   3.690e-5
1.414,   3.759e-5
1.415,   3.829e-5
1.416,   3.911e-5
1.417,   3.996e-5
1.418,   4.080e-5
1.419,   4.164e-5
1.420,   4.263e-5
1.421,   4.359e-5
1.422,   4.466e-5
1.423,   4.578e-5
1.424,   4.687e-5
1.425,   4.806e-5
1.426,   4.926e-5
1.427,   5.058e-5
1.428,   5.197e-5
1.429,   5.337e-5
1.430,   5.484e-5
1.431,   5.640e-5
1.432,   5.794e-5
1.433,   5.961e-5
1.434,   6.138e-5
1.435,   6.323e-5
1.436,   6.518e-5
1.437,   6.717e-5
1.438,   6.926e-5
1.439,   7.148e-5
1.440,   7.373e-5
1.441,   7.619e-5
1.442,   7.873e-5
1.443,   8.133e-5
1.444,   8.405e-5
1.445,   8.684e-5
1.446,   8.980e-5
1.447,   9.291e-5
1.448,   9.606e-5
1.449,   9.942e-5
1.450,   1.029e-4
1.451,   1.064e-4
1.452,   1.103e-4
1.453,   1.141e-4
1.454,   1.183e-4
1.455,   1.225e-4
1.456,   1.269e-4
1.457,   1.315e-4
1.458,   1.362e-4
1.459,   1.411e-4
1.460,   1.462e-4
1.461,   1.515e-4
1.462,   1.571e-4
1.463,   1.629e-4
1.464,   1.688e-4
1.465,   1.749e-4
1.466,   1.812e-4
1.467,   1.878e-4
1.468,   1.945e-4
1.469,   2.015e-4
1.470,   2.088e-4
1.471,   2.163e-4
1.472,   2.241e-4
1.473,   2.323e-4
1.474,   2.407e-4
1.475,   2.493e-4
1.476,   2.581e-4
1.477,   2.673e-4
1.478,   2.767e-4
1.479,   2.866e-4
1.480,   2.967e-4
1.481,   3.071e-4
1.482,   3.179e-4
1.483,   3.289e-4
1.484,   3.403e-4
1.485,   3.518e-4
1.486,   3.637e-4
1.487,   3.760e-4
1.488,   3.888e-4
1.489,   4.018e-4
1.490,   4.153e-4
1.491,   4.289e-4
1.492,   4.431e-4
1.493,   4.575e-4
1.494,   4.724e-4
1.495,   4.876e-4
1.496,   5.029e-4
1.497,   5.188e-4
1.498,   5.350e-4
1.499,   5.517e-4
1.500,   5.687e-4
1.501,   5.861e-4
1.502,   6.039e-4
1.503,   6.221e-4
1.504,   6.408e-4
1.505,   6.599e-4
1.506,   6.792e-4
1.507,   6.988e-4
1.508,   7.190e-4
1.509,   7.394e-4
1.510,   7.604e-4
1.511,   7.816e-4
1.512,   8.034e-4
1.513,   8.254e-4
1.514,   8.476e-4
1.515,   8.704e-4
1.516,   8.935e-4
1.517,   9.171e-4
1.518,   9.413e-4
1.519,   9.660e-4
1.520,   9.908e-4
1.521,   1.016e-3
1.522,   1.041e-3
1.523,   1.067e-3
1.524,   1.093e-3
1.525,   1.119e-3
1.526,   1.146e-3
1.527,   1.173e-3
1.528,   1.201e-3
1.529,   1.228e-3
1.530,   1.256e-3
1.531,   1.285e-3
1.532,   1.314e-3
1.533,   1.343e-3
1.534,   1.373e-3
1.535,   1.402e-3
1.536,   1.433e-3
1.537,   1.464e-3
1.538,   1.494e-3
1.539,   1.525e-3
1.540,   1.556e-3
1.541,   1.588e-3
1.542,   1.620e-3
1.543,   1.653e-3
1.544,   1.685e-3
1.545,   1.718e-3
1.546,   1.752e-3
1.547,   1.786e-3
1.548,   1.820e-3
1.549,   1.854e-3
1.550,   1.889e-3
1.551,   1.923e-3
1.552,   1.958e-3
1.553,   1.994e-3
1.554,   2.029e-3
1.555,   2.065e-3
1.556,   2.102e-3
1.557,   2.139e-3
1.558,   2.176e-3
1.559,   2.213e-3
1.560,   2.251e-3
1.561,   2.289e-3
1.562,   2.326e-3
1.563,   2.365e-3
1.564,   2.404e-3
1.565,   2.442e-3
1.566,   2.482e-3
1.567,   2.522e-3
1.568,   2.562e-3
1.569,   2.601e-3
1.570,   2.642e-3
1.571,   2.682e-3
1.572,   2.723e-3
1.573,   2.764e-3
1.574,   2.805e-3
1.575,   2.845e-3
1.576,   2.886e-3
1.577,   2.927e-3
1.578,   2.969e-3
1.579,   3.010e-3
1.580,   3.053e-3
1.581,   3.096e-3
1.582,   3.140e-3
1.583,   3.181e-3
1.584,   3.224e-3
1.585,   3.269e-3
1.586,   3.319e-3
1.587,   3.365e-3
1.588,   3.408e-3
1.589,   3.451e-3
1.590,   3.495e-3
1.591,   3.540e-3
1.592,   3.585e-3
1.593,   3.628e-3
1.594,   3.673e-3
1.595,   3.718e-3
1.596,   3.765e-3
1.597,   3.811e-3
1.598,   3.856e-3
1.599,   3.900e-3
1.600,   3.948e-3
1.601,   3.995e-3
1.602,   4.043e-3
1.603,   4.088e-3
1.604,   4.134e-3
1.605,   4.179e-3
1.606,   4.226e-3
1.607,   4.274e-3
1.608,   4.321e-3
1.609,   4.369e-3
1.610,   4.415e-3
1.611,   4.464e-3
1.612,   4.512e-3
1.613,   4.557e-3
1.614,   4.604e-3
1.615,   4.648e-3
1.616,   4.691e-3
1.617,   4.747e-3
1.618,   4.796e-3
1.619,   4.844e-3
1.620,   4.891e-3
1.621,   4.942e-3
1.622,   4.995e-3
1.623,   5.056e-3
1.624,   5.106e-3
1.625,   5.144e-3
1.626,   5.191e-3
1.627,   5.239e-3
1.628,   5.286e-3
1.629,   5.326e-3
1.630,   5.370e-3
1.631,   5.422e-3
1.632,   5.463e-3
1.633,   5.503e-3
1.634,   5.544e-3
1.635,   5.586e-3
1.636,   5.635e-3
1.637,   5.686e-3
1.638,   5.728e-3
1.639,   5.770e-3
1.640,   5.820e-3
1.641,   5.957e-3
1.642,   6.051e-3
1.643,   6.145e-3
1.644,   6.232e-3
1.645,   6.314e-3
1.646,   6.358e-3
1.647,   6.406e-3
1.648,   6.466e-3
1.649,   6.500e-3
1.650,   6.534e-3
1.651,   6.588e-3
1.652,   6.667e-3
1.653,   6.697e-3
1.654,   6.732e-3
1.655,   6.780e-3
1.656,   6.828e-3
1.657,   6.865e-3
1.658,   6.937e-3
1.659,   6.985e-3
1.660,   7.012e-3
1.661,   7.055e-3
1.662,   7.090e-3
1.663,   7.133e-3
1.664,   7.181e-3
1.665,   7.218e-3
1.666,   7.297e-3
1.667,   7.342e-3
1.668,   7.366e-3
1.669,   7.384e-3
1.670,   7.424e-3
1.671,   7.503e-3
1.672,   8.264e-3
1.673,   8.485e-3
1.674,   8.476e-3
1.675,   8.450e-3
1.676,   8.437e-3
1.677,   8.442e-3
1.678,   8.453e-3
1.679,   8.491e-3
1.680,   8.529e-3
1.681,   8.555e-3
1.682,   8.559e-3
1.683,   8.578e-3
1.684,   8.578e-3
1.685,   8.592e-3
1.686,   8.638e-3
1.687,   8.692e-3
1.688,   8.699e-3
1.689,   8.710e-3
1.690,   8.736e-3
1.691,   8.795e-3
1.692,   8.838e-3
1.693,   8.909e-3
1.694,   8.935e-3
1.695,   8.938e-3
1.696,   8.966e-3
1.697,   8.996e-3
1.698,   9.047e-3
1.699,   9.081e-3
1.700,   9.098e-3
1.701,   9.122e-3
1.702,   9.121e-3
1.703,   9.145e-3