File: Experimental Records and Raw Data/batch2/final500/B2_VARIANCE_500#2_High_Quality-247mV.txt
Jan. 18, 2023   17:03:12
Linear Sweep Voltammetry
File: d:\current work\al_oer\electrochemical test data\batch 2\500\B2_VARIANCE_500#2_High_Quality-247mV.txt
Data Source:  Experiment
Instrument Model:  CHI660E
Header:
Note:

Init E (V) = 1.098

Final E (V) = 1.550

Scan Rate (V/s) = 0.010
Sample Interval (V) = 0.001
Quiet Time (sec) = 2
Sensitivity (A/V) = 0.001
Comp R (ohm) = 4.4

Results:

Channel 1:

Potential/V, Current/A
1.098,   1.980e-4
1.099,   1.885e-4
1.100,   1.770e-4
1.101,   1.650e-4
1.102,   1.549e-4
1.103,   1.460e-4
1.104,   1.381e-4
1.105,   1.311e-4
1.106,   1.247e-4
1.107,   1.191e-4
1.108,   1.140e-4
1.109,   1.092e-4
1.110,   1.050e-4
1.111,   1.012e-4
1.112,   9.772e-5
1.113,   9.457e-5
1.114,   9.157e-5
1.115,   8.889e-5
1.116,   8.645e-5
1.117,   8.403e-5
1.118,   8.198e-5
1.119,   8.020e-5
1.120,   7.828e-5
1.121,   7.657e-5
1.122,   7.484e-5
1.123,   7.342e-5
1.124,   7.213e-5
1.125,   7.078e-5
1.126,   6.952e-5
1.127,   6.839e-5
1.128,   6.738e-5
1.129,   6.637e-5
1.130,   6.540e-5
1.131,   6.458e-5
1.132,   6.374e-5
1.133,   6.296e-5
1.134,   6.230e-5
1.135,   6.158e-5
1.136,   6.097e-5
1.137,   6.030e-5
1.138,   5.974e-5
1.139,   5.929e-5
1.140,   5.877e-5
1.141,   5.816e-5
1.142,   5.782e-5
1.143,   5.741e-5
1.144,   5.696e-5
1.145,   5.675e-5
1.146,   5.626e-5
1.147,   5.587e-5
1.148,   5.560e-5
1.149,   5.530e-5
1.150,   5.506e-5
1.151,   5.491e-5
1.152,   5.460e-5
1.153,   5.447e-5
1.154,   5.425e-5
1.155,   5.393e-5
1.156,   5.370e-5
1.157,   5.339e-5
1.158,   5.316e-5
1.159,   5.301e-5
1.160,   5.297e-5
1.161,   5.283e-5
1.162,   5.263e-5
1.163,   5.260e-5
1.164,   5.240e-5
1.165,   5.226e-5
1.166,   5.230e-5
1.167,   5.217e-5
1.168,   5.202e-5
1.169,   5.205e-5
1.170,   5.192e-5
1.171,   5.182e-5
1.172,   5.187e-5
1.173,   5.165e-5
1.174,   5.178e-5
1.175,   5.171e-5
1.176,   5.160e-5
1.177,   5.168e-5
1.178,   5.157e-5
1.179,   5.162e-5
1.180,   5.165e-5
1.181,   5.164e-5
1.182,   5.161e-5
1.183,   5.170e-5
1.184,   5.164e-5
1.185,   5.164e-5
1.186,   5.165e-5
1.187,   5.169e-5
1.188,   5.169e-5
1.189,   5.176e-5
1.190,   5.182e-5
1.191,   5.176e-5
1.192,   5.185e-5
1.193,   5.191e-5
1.194,   5.182e-5
1.195,   5.200e-5
1.196,   5.206e-5
1.197,   5.205e-5
1.198,   5.221e-5
1.199,   5.218e-5
1.200,   5.219e-5
1.201,   5.240e-5
1.202,   5.229e-5
1.203,   5.242e-5
1.204,   5.253e-5
1.205,   5.242e-5
1.206,   5.254e-5
1.207,   5.263e-5
1.208,   5.264e-5
1.209,   5.284e-5
1.210,   5.285e-5
1.211,   5.288e-5
1.212,   5.320e-5
1.213,   5.308e-5
1.214,   5.316e-5
1.215,   5.330e-5
1.216,   5.339e-5
1.217,   5.342e-5
1.218,   5.346e-5
1.219,   5.355e-5
1.220,   5.356e-5
1.221,   5.379e-5
1.222,   5.388e-5
1.223,   5.387e-5
1.224,   5.396e-5
1.225,   5.407e-5
1.226,   5.398e-5
1.227,   5.416e-5
1.228,   5.420e-5
1.229,   5.422e-5
1.230,   5.441e-5
1.231,   5.443e-5
1.232,   5.443e-5
1.233,   5.459e-5
1.234,   5.462e-5
1.235,   5.464e-5
1.236,   5.482e-5
1.237,   5.472e-5
1.238,   5.490e-5
1.239,   5.495e-5
1.240,   5.503e-5
1.241,   5.515e-5
1.242,   5.523e-5
1.243,   5.531e-5
1.244,   5.547e-5
1.245,   5.547e-5
1.246,   5.550e-5
1.247,   5.554e-5
1.248,   5.558e-5
1.249,   5.564e-5
1.250,   5.560e-5
1.251,   5.577e-5
1.252,   5.581e-5
1.253,   5.575e-5
1.254,   5.592e-5
1.255,   5.583e-5
1.256,   5.585e-5
1.257,   5.606e-5
1.258,   5.596e-5
1.259,   5.619e-5
1.260,   5.628e-5
1.261,   5.618e-5
1.262,   5.639e-5
1.263,   5.632e-5
1.264,   5.640e-5
1.265,   5.663e-5
1.266,   5.655e-5
1.267,   5.652e-5
1.268,   5.670e-5
1.269,   5.668e-5
1.270,   5.681e-5
1.271,   5.689e-5
1.272,   5.687e-5
1.273,   5.694e-5
1.274,   5.700e-5
1.275,   5.709e-5
1.276,   5.719e-5
1.277,   5.719e-5
1.278,   5.728e-5
1.279,   5.729e-5
1.280,   5.734e-5
1.281,   5.735e-5
1.282,   5.739e-5
1.283,   5.747e-5
1.284,   5.751e-5
1.285,   5.750e-5
1.286,   5.759e-5
1.287,   5.754e-5
1.288,   5.762e-5
1.289,   5.785e-5
1.290,   5.767e-5
1.291,   5.787e-5
1.292,   5.803e-5
1.293,   5.786e-5
1.294,   5.809e-5
1.295,   5.816e-5
1.296,   5.809e-5
1.297,   5.828e-5
1.298,   5.828e-5
1.299,   5.837e-5
1.300,   5.854e-5
1.301,   5.847e-5
1.302,   5.856e-5
1.303,   5.864e-5
1.304,   5.865e-5
1.305,   5.869e-5
1.306,   5.879e-5
1.307,   5.883e-5
1.308,   5.885e-5
1.309,   5.901e-5
1.310,   5.915e-5
1.311,   5.920e-5
1.312,   5.928e-5
1.313,   5.940e-5
1.314,   5.932e-5
1.315,   5.956e-5
1.316,   5.958e-5
1.317,   5.964e-5
1.318,   5.987e-5
1.319,   5.990e-5
1.320,   5.997e-5
1.321,   6.024e-5
1.322,   6.018e-5
1.323,   6.039e-5
1.324,   6.060e-5
1.325,   6.060e-5
1.326,   6.075e-5
1.327,   6.095e-5
1.328,   6.087e-5
1.329,   6.117e-5
1.330,   6.131e-5
1.331,   6.143e-5
1.332,   6.169e-5
1.333,   6.173e-5
1.334,   6.186e-5
1.335,   6.209e-5
1.336,   6.224e-5
1.337,   6.247e-5
1.338,   6.252e-5
1.339,   6.274e-5
1.340,   6.297e-5
1.341,   6.320e-5
1.342,   6.327e-5
1.343,   6.345e-5
1.344,   6.367e-5
1.345,   6.396e-5
1.346,   6.412e-5
1.347,   6.447e-5
1.348,   6.466e-5
1.349,   6.485e-5
1.350,   6.522e-5
1.351,   6.530e-5
1.352,   6.558e-5
1.353,   6.599e-5
1.354,   6.606e-5
1.355,   6.638e-5
1.356,   6.684e-5
1.357,   6.693e-5
1.358,   6.736e-5
1.359,   6.775e-5
1.360,   6.796e-5
1.361,   6.844e-5
1.362,   6.877e-5
1.363,   6.896e-5
1.364,   6.948e-5
1.365,   6.983e-5
1.366,   7.017e-5
1.367,   7.060e-5
1.368,   7.107e-5
1.369,   7.148e-5
1.370,   7.194e-5
1.371,   7.249e-5
1.372,   7.303e-5
1.373,   7.353e-5
1.374,   7.415e-5
1.375,   7.473e-5
1.376,   7.533e-5
1.377,   7.609e-5
1.378,   7.651e-5
1.379,   7.739e-5
1.380,   7.819e-5
1.381,   7.883e-5
1.382,   7.988e-5
1.383,   8.070e-5
1.384,   8.148e-5
1.385,   8.277e-5
1.386,   8.369e-5
1.387,   8.483e-5
1.388,   8.617e-5
1.389,   8.718e-5
1.390,   8.852e-5
1.391,   8.988e-5
1.392,   9.122e-5
1.393,   9.287e-5
1.394,   9.456e-5
1.395,   9.620e-5
1.396,   9.816e-5
1.397,   1.002e-4
1.398,   1.022e-4
1.399,   1.043e-4
1.400,   1.067e-4
1.401,   1.092e-4
1.402,   1.117e-4
1.403,   1.146e-4
1.404,   1.176e-4
1.405,   1.207e-4
1.406,   1.241e-4
1.407,   1.277e-4
1.408,   1.314e-4
1.409,   1.354e-4
1.410,   1.394e-4
1.411,   1.439e-4
1.412,   1.485e-4
1.413,   1.533e-4
1.414,   1.589e-4
1.415,   1.643e-4
1.416,   1.699e-4
1.417,   1.760e-4
1.418,   1.826e-4
1.419,   1.896e-4
1.420,   1.970e-4
1.421,   2.044e-4
1.422,   2.123e-4
1.423,   2.207e-4
1.424,   2.293e-4
1.425,   2.385e-4
1.426,   2.482e-4
1.427,   2.579e-4
1.428,   2.684e-4
1.429,   2.795e-4
1.430,   2.909e-4
1.431,   3.028e-4
1.432,   3.152e-4
1.433,   3.285e-4
1.434,   3.431e-4
1.435,   3.600e-4
1.436,   3.757e-4
1.437,   3.916e-4
1.438,   4.083e-4
1.439,   4.253e-4
1.440,   4.429e-4
1.441,   4.602e-4
1.442,   4.802e-4
1.443,   5.009e-4
1.444,   5.242e-4
1.445,   5.468e-4
1.446,   5.687e-4
1.447,   5.929e-4
1.448,   6.196e-4
1.449,   6.456e-4
1.450,   6.723e-4
1.451,   6.975e-4
1.452,   7.283e-4
1.453,   7.597e-4
1.454,   7.912e-4
1.455,   8.221e-4
1.456,   8.539e-4
1.457,   8.884e-4
1.458,   9.254e-4
1.459,   9.627e-4
1.460,   1.000e-3
1.461,   1.042e-3
1.462,   1.084e-3
1.463,   1.127e-3
1.464,   1.174e-3
1.465,   1.222e-3
1.466,   1.269e-3
1.467,   1.316e-3
1.468,   1.368e-3
1.469,   1.422e-3
1.470,   1.474e-3
1.471,   1.528e-3
1.472,   1.584e-3
1.473,   1.641e-3
1.474,   1.704e-3
1.475,   1.768e-3
1.476,   1.830e-3
1.477,   1.896e-3
1.478,   1.963e-3
1.479,   2.033e-3
1.480,   2.106e-3
1.481,   2.182e-3
1.482,   2.254e-3
1.483,   2.334e-3
1.484,   2.414e-3
1.485,   2.492e-3
1.486,   2.575e-3
1.487,   2.658e-3
1.488,   2.747e-3
1.489,   2.835e-3
1.490,   2.925e-3
1.491,   3.022e-3
1.492,   3.117e-3
1.493,   3.212e-3
1.494,   3.308e-3
1.495,   3.408e-3
1.496,   3.519e-3
1.497,   3.630e-3
1.498,   3.737e-3
1.499,   3.849e-3
1.500,   3.969e-3
1.501,   4.088e-3
1.502,   4.203e-3
1.503,   4.319e-3
1.504,   4.446e-3
1.505,   4.564e-3
1.506,   4.684e-3
1.507,   4.812e-3
1.508,   4.934e-3
1.509,   5.069e-3
1.510,   5.221e-3
1.511,   5.360e-3
1.512,   5.494e-3
1.513,   5.626e-3
1.514,   5.763e-3
1.515,   5.896e-3
1.516,   6.037e-3
1.517,   6.185e-3
1.518,   6.329e-3
1.519,   6.475e-3
1.520,   6.623e-3
1.521,   6.784e-3
1.522,   6.954e-3
1.523,   7.111e-3
1.524,   7.266e-3
1.525,   7.412e-3
1.526,   7.568e-3
1.527,   7.728e-3
1.528,   7.884e-3
1.529,   8.058e-3
1.530,   8.268e-3
1.531,   8.444e-3
1.532,   8.636e-3
1.533,   8.823e-3
1.534,   8.988e-3
1.535,   9.162e-3
1.536,   9.326e-3
1.537,   9.472e-3
1.538,   9.646e-3
1.539,   9.830e-3
1.540,   1.003e-2
1.541,   1.007e-2
1.542,   1.007e-2
1.543,   1.007e-2
1.544,   1.007e-2
1.545,   1.007e-2
1.546,   1.007e-2
1.547,   1.007e-2
1.548,   1.007e-2
1.549,   1.007e-2
1.550,   1.007e-2