File: Experimental Records, Raw Data, and Supplementary Notes and Figures/batch1/final500/B1_BEST_500_#8_High_Quality-218mV.txt
Dec. 12, 2022   16:10:45
Linear Sweep Voltammetry
File: d:\current work\al_oer\electrochemical test data\batch 1\500\B1_BEST_500_#8_High_Quality-218mV.txt
Data Source:  Experiment
Instrument Model:  CHI660E
Header:
Note:

Init E (V) = 1.092

Final E (V) = 1.524

Scan Rate (V/s) = 0.010
Sample Interval (V) = 0.001
Quiet Time (sec) = 2
Sensitivity (A/V) = 0.001
Comp R (ohm) = 5.9

Results:

Channel 1:

Potential/V, Current/A
1.092,   1.908e-4
1.093,   1.860e-4
1.094,   1.758e-4
1.095,   1.662e-4
1.096,   1.578e-4
1.097,   1.497e-4
1.098,   1.425e-4
1.099,   1.362e-4
1.100,   1.308e-4
1.101,   1.256e-4
1.102,   1.212e-4
1.103,   1.170e-4
1.104,   1.134e-4
1.105,   1.098e-4
1.106,   1.065e-4
1.107,   1.035e-4
1.108,   1.004e-4
1.109,   9.787e-5
1.110,   9.566e-5
1.111,   9.334e-5
1.112,   9.155e-5
1.113,   8.961e-5
1.114,   8.733e-5
1.115,   8.575e-5
1.116,   8.445e-5
1.117,   8.245e-5
1.118,   8.116e-5
1.119,   7.992e-5
1.120,   7.878e-5
1.121,   7.756e-5
1.122,   7.612e-5
1.123,   7.496e-5
1.124,   7.369e-5
1.125,   7.272e-5
1.126,   7.173e-5
1.127,   7.057e-5
1.128,   6.977e-5
1.129,   6.882e-5
1.130,   6.796e-5
1.131,   6.726e-5
1.132,   6.646e-5
1.133,   6.577e-5
1.134,   6.516e-5
1.135,   6.451e-5
1.136,   6.401e-5
1.137,   6.344e-5
1.138,   6.291e-5
1.139,   6.252e-5
1.140,   6.203e-5
1.141,   6.154e-5
1.142,   6.111e-5
1.143,   6.054e-5
1.144,   6.019e-5
1.145,   5.985e-5
1.146,   5.942e-5
1.147,   5.916e-5
1.148,   5.874e-5
1.149,   5.845e-5
1.150,   5.822e-5
1.151,   5.789e-5
1.152,   5.770e-5
1.153,   5.736e-5
1.154,   5.706e-5
1.155,   5.688e-5
1.156,   5.665e-5
1.157,   5.651e-5
1.158,   5.637e-5
1.159,   5.607e-5
1.160,   5.598e-5
1.161,   5.588e-5
1.162,   5.560e-5
1.163,   5.548e-5
1.164,   5.530e-5
1.165,   5.514e-5
1.166,   5.509e-5
1.167,   5.486e-5
1.168,   5.486e-5
1.169,   5.472e-5
1.170,   5.464e-5
1.171,   5.465e-5
1.172,   5.443e-5
1.173,   5.444e-5
1.174,   5.456e-5
1.175,   5.430e-5
1.176,   5.438e-5
1.177,   5.441e-5
1.178,   5.425e-5
1.179,   5.424e-5
1.180,   5.405e-5
1.181,   5.403e-5
1.182,   5.407e-5
1.183,   5.395e-5
1.184,   5.397e-5
1.185,   5.392e-5
1.186,   5.383e-5
1.187,   5.391e-5
1.188,   5.378e-5
1.189,   5.388e-5
1.190,   5.401e-5
1.191,   5.380e-5
1.192,   5.385e-5
1.193,   5.388e-5
1.194,   5.384e-5
1.195,   5.394e-5
1.196,   5.396e-5
1.197,   5.384e-5
1.198,   5.389e-5
1.199,   5.378e-5
1.200,   5.388e-5
1.201,   5.393e-5
1.202,   5.399e-5
1.203,   5.405e-5
1.204,   5.390e-5
1.205,   5.401e-5
1.206,   5.414e-5
1.207,   5.392e-5
1.208,   5.401e-5
1.209,   5.423e-5
1.210,   5.459e-5
1.211,   5.460e-5
1.212,   5.431e-5
1.213,   5.440e-5
1.214,   5.436e-5
1.215,   5.428e-5
1.216,   5.453e-5
1.217,   5.428e-5
1.218,   5.445e-5
1.219,   5.432e-5
1.220,   5.446e-5
1.221,   5.440e-5
1.222,   5.464e-5
1.223,   5.449e-5
1.224,   5.432e-5
1.225,   5.464e-5
1.226,   5.448e-5
1.227,   5.451e-5
1.228,   5.468e-5
1.229,   5.475e-5
1.230,   5.479e-5
1.231,   5.460e-5
1.232,   5.467e-5
1.233,   5.481e-5
1.234,   5.477e-5
1.235,   5.492e-5
1.236,   5.473e-5
1.237,   5.490e-5
1.238,   5.489e-5
1.239,   5.477e-5
1.240,   5.503e-5
1.241,   5.494e-5
1.242,   5.490e-5
1.243,   5.510e-5
1.244,   5.499e-5
1.245,   5.495e-5
1.246,   5.513e-5
1.247,   5.530e-5
1.248,   5.543e-5
1.249,   5.530e-5
1.250,   5.527e-5
1.251,   5.541e-5
1.252,   5.527e-5
1.253,   5.563e-5
1.254,   5.572e-5
1.255,   5.531e-5
1.256,   5.558e-5
1.257,   5.597e-5
1.258,   5.555e-5
1.259,   5.585e-5
1.260,   5.606e-5
1.261,   5.555e-5
1.262,   5.616e-5
1.263,   5.585e-5
1.264,   5.601e-5
1.265,   5.624e-5
1.266,   5.592e-5
1.267,   5.647e-5
1.268,   5.573e-5
1.269,   5.644e-5
1.270,   5.619e-5
1.271,   5.667e-5
1.272,   5.644e-5
1.273,   5.627e-5
1.274,   5.672e-5
1.275,   5.656e-5
1.276,   5.675e-5
1.277,   5.667e-5
1.278,   5.698e-5
1.279,   5.723e-5
1.280,   5.681e-5
1.281,   5.708e-5
1.282,   5.723e-5
1.283,   5.715e-5
1.284,   5.732e-5
1.285,   5.708e-5
1.286,   5.796e-5
1.287,   5.731e-5
1.288,   5.745e-5
1.289,   5.804e-5
1.290,   5.762e-5
1.291,   5.822e-5
1.292,   5.720e-5
1.293,   5.819e-5
1.294,   5.752e-5
1.295,   5.866e-5
1.296,   5.777e-5
1.297,   5.874e-5
1.298,   5.759e-5
1.299,   5.909e-5
1.300,   5.776e-5
1.301,   5.936e-5
1.302,   5.846e-5
1.303,   5.896e-5
1.304,   5.934e-5
1.305,   5.814e-5
1.306,   5.952e-5
1.307,   5.842e-5
1.308,   5.921e-5
1.309,   5.935e-5
1.310,   5.875e-5
1.311,   6.001e-5
1.312,   5.903e-5
1.313,   5.986e-5
1.314,   6.017e-5
1.315,   5.942e-5
1.316,   6.057e-5
1.317,   5.978e-5
1.318,   6.036e-5
1.319,   6.089e-5
1.320,   6.003e-5
1.321,   6.127e-5
1.322,   6.016e-5
1.323,   6.097e-5
1.324,   6.157e-5
1.325,   6.071e-5
1.326,   6.192e-5
1.327,   6.170e-5
1.328,   6.137e-5
1.329,   6.251e-5
1.330,   6.217e-5
1.331,   6.201e-5
1.332,   6.343e-5
1.333,   6.278e-5
1.334,   6.262e-5
1.335,   6.396e-5
1.336,   6.402e-5
1.337,   6.337e-5
1.338,   6.444e-5
1.339,   6.525e-5
1.340,   6.471e-5
1.341,   6.455e-5
1.342,   6.579e-5
1.343,   6.650e-5
1.344,   6.634e-5
1.345,   6.573e-5
1.346,   6.609e-5
1.347,   6.720e-5
1.348,   6.846e-5
1.349,   6.850e-5
1.350,   6.892e-5
1.351,   6.880e-5
1.352,   6.942e-5
1.353,   7.021e-5
1.354,   7.032e-5
1.355,   7.135e-5
1.356,   7.195e-5
1.357,   7.244e-5
1.358,   7.338e-5
1.359,   7.414e-5
1.360,   7.462e-5
1.361,   7.540e-5
1.362,   7.601e-5
1.363,   7.696e-5
1.364,   7.874e-5
1.365,   8.007e-5
1.366,   8.016e-5
1.367,   8.125e-5
1.368,   8.299e-5
1.369,   8.530e-5
1.370,   8.537e-5
1.371,   8.716e-5
1.372,   8.763e-5
1.373,   9.168e-5
1.374,   9.386e-5
1.375,   9.476e-5
1.376,   9.545e-5
1.377,   9.708e-5
1.378,   9.833e-5
1.379,   1.020e-4
1.380,   1.038e-4
1.381,   1.062e-4
1.382,   1.105e-4
1.383,   1.145e-4
1.384,   1.203e-4
1.385,   1.263e-4
1.386,   1.289e-4
1.387,   1.289e-4
1.388,   1.353e-4
1.389,   1.449e-4
1.390,   1.449e-4
1.391,   1.520e-4
1.392,   1.610e-4
1.393,   1.626e-4
1.394,   1.752e-4
1.395,   1.771e-4
1.396,   1.883e-4
1.397,   1.968e-4
1.398,   2.028e-4
1.399,   2.162e-4
1.400,   2.253e-4
1.401,   2.332e-4
1.402,   2.458e-4
1.403,   2.598e-4
1.404,   2.725e-4
1.405,   2.852e-4
1.406,   2.986e-4
1.407,   3.135e-4
1.408,   3.294e-4
1.409,   3.457e-4
1.410,   3.628e-4
1.411,   3.806e-4
1.412,   3.992e-4
1.413,   4.191e-4
1.414,   4.422e-4
1.415,   4.654e-4
1.416,   4.847e-4
1.417,   5.080e-4
1.418,   5.375e-4
1.419,   5.595e-4
1.420,   5.881e-4
1.421,   6.191e-4
1.422,   6.430e-4
1.423,   6.798e-4
1.424,   7.061e-4
1.425,   7.434e-4
1.426,   7.734e-4
1.427,   8.111e-4
1.428,   8.495e-4
1.429,   8.835e-4
1.430,   9.276e-4
1.431,   9.670e-4
1.432,   1.006e-3
1.433,   1.052e-3
1.434,   1.097e-3
1.435,   1.141e-3
1.436,   1.187e-3
1.437,   1.236e-3
1.438,   1.289e-3
1.439,   1.342e-3
1.440,   1.395e-3
1.441,   1.449e-3
1.442,   1.506e-3
1.443,   1.569e-3
1.444,   1.637e-3
1.445,   1.706e-3
1.446,   1.773e-3
1.447,   1.836e-3
1.448,   1.910e-3
1.449,   1.986e-3
1.450,   2.065e-3
1.451,   2.148e-3
1.452,   2.234e-3
1.453,   2.319e-3
1.454,   2.412e-3
1.455,   2.507e-3
1.456,   2.603e-3
1.457,   2.704e-3
1.458,   2.807e-3
1.459,   2.915e-3
1.460,   3.018e-3
1.461,   3.123e-3
1.462,   3.239e-3
1.463,   3.360e-3
1.464,   3.477e-3
1.465,   3.602e-3
1.466,   3.714e-3
1.467,   3.837e-3
1.468,   3.917e-3
1.469,   4.011e-3
1.470,   4.135e-3
1.471,   4.332e-3
1.472,   4.611e-3
1.473,   4.785e-3
1.474,   4.926e-3
1.475,   5.049e-3
1.476,   5.147e-3
1.477,   5.266e-3
1.478,   5.427e-3
1.479,   5.592e-3
1.480,   5.761e-3
1.481,   5.923e-3
1.482,   6.092e-3
1.483,   6.248e-3
1.484,   6.487e-3
1.485,   6.671e-3
1.486,   6.831e-3
1.487,   6.977e-3
1.488,   7.149e-3
1.489,   7.335e-3
1.490,   7.599e-3
1.491,   7.875e-3
1.492,   8.170e-3
1.493,   8.334e-3
1.494,   8.444e-3
1.495,   8.558e-3
1.496,   8.690e-3
1.497,   8.811e-3
1.498,   9.350e-3
1.499,   9.845e-3
1.500,   1.003e-2
1.501,   1.006e-2
1.502,   1.006e-2
1.503,   1.006e-2
1.504,   1.006e-2
1.505,   1.006e-2
1.506,   1.006e-2
1.507,   1.006e-2
1.508,   1.006e-2
1.509,   1.006e-2
1.510,   1.006e-2
1.511,   1.006e-2
1.512,   1.006e-2
1.513,   1.006e-2
1.514,   1.006e-2
1.515,   1.006e-2
1.516,   1.006e-2
1.517,   1.006e-2
1.518,   1.006e-2
1.519,   1.006e-2
1.520,   1.006e-2
1.521,   1.006e-2
1.522,   1.006e-2
1.523,   1.006e-2
1.524,   1.006e-2