File: Experimental Records, Raw Data, and Supplementary Notes and Figures/batch1/final500/B1_BEST_500_#9_Full-343mV.txt
Dec. 14, 2022   15:41:48
Linear Sweep Voltammetry
File: d:\current work\al_oer\electrochemical test data\batch 1\500\B1_BEST_500_#9_Full-343mV.txt
Data Source:  Experiment
Instrument Model:  CHI660E
Header:
Note:

Init E (V) = 1.116

Final E (V) = 1.815

Scan Rate (V/s) = 0.010
Sample Interval (V) = 0.001
Quiet Time (sec) = 2
Sensitivity (A/V) = 0.001
Comp R (ohm) = 5.2

Results:

Channel 1:

Potential/V, Current/A
1.116,   3.268e-5
1.117,   3.151e-5
1.118,   2.964e-5
1.119,   2.795e-5
1.120,   2.643e-5
1.121,   2.505e-5
1.122,   2.381e-5
1.123,   2.278e-5
1.124,   2.180e-5
1.125,   2.091e-5
1.126,   2.009e-5
1.127,   1.933e-5
1.128,   1.869e-5
1.129,   1.810e-5
1.130,   1.753e-5
1.131,   1.703e-5
1.132,   1.653e-5
1.133,   1.611e-5
1.134,   1.571e-5
1.135,   1.532e-5
1.136,   1.497e-5
1.137,   1.466e-5
1.138,   1.433e-5
1.139,   1.405e-5
1.140,   1.378e-5
1.141,   1.354e-5
1.142,   1.332e-5
1.143,   1.312e-5
1.144,   1.294e-5
1.145,   1.271e-5
1.146,   1.254e-5
1.147,   1.237e-5
1.148,   1.220e-5
1.149,   1.208e-5
1.150,   1.194e-5
1.151,   1.177e-5
1.152,   1.165e-5
1.153,   1.152e-5
1.154,   1.143e-5
1.155,   1.130e-5
1.156,   1.121e-5
1.157,   1.111e-5
1.158,   1.106e-5
1.159,   1.096e-5
1.160,   1.090e-5
1.161,   1.079e-5
1.162,   1.071e-5
1.163,   1.064e-5
1.164,   1.060e-5
1.165,   1.054e-5
1.166,   1.049e-5
1.167,   1.045e-5
1.168,   1.043e-5
1.169,   1.039e-5
1.170,   1.034e-5
1.171,   1.029e-5
1.172,   1.024e-5
1.173,   1.019e-5
1.174,   1.016e-5
1.175,   1.017e-5
1.176,   1.015e-5
1.177,   1.012e-5
1.178,   1.011e-5
1.179,   1.011e-5
1.180,   1.003e-5
1.181,   1.005e-5
1.182,   1.008e-5
1.183,   1.002e-5
1.184,   1.002e-5
1.185,   1.000e-5
1.186,   9.980e-6
1.187,   1.001e-5
1.188,   9.973e-6
1.189,   9.991e-6
1.190,   9.963e-6
1.191,   9.955e-6
1.192,   9.995e-6
1.193,   9.987e-6
1.194,   9.994e-6
1.195,   1.002e-5
1.196,   1.002e-5
1.197,   1.003e-5
1.198,   1.003e-5
1.199,   1.004e-5
1.200,   1.009e-5
1.201,   1.010e-5
1.202,   1.010e-5
1.203,   1.013e-5
1.204,   1.013e-5
1.205,   1.014e-5
1.206,   1.015e-5
1.207,   1.016e-5
1.208,   1.020e-5
1.209,   1.022e-5
1.210,   1.023e-5
1.211,   1.027e-5
1.212,   1.025e-5
1.213,   1.030e-5
1.214,   1.033e-5
1.215,   1.032e-5
1.216,   1.036e-5
1.217,   1.037e-5
1.218,   1.039e-5
1.219,   1.048e-5
1.220,   1.047e-5
1.221,   1.049e-5
1.222,   1.053e-5
1.223,   1.054e-5
1.224,   1.056e-5
1.225,   1.061e-5
1.226,   1.061e-5
1.227,   1.068e-5
1.228,   1.067e-5
1.229,   1.069e-5
1.230,   1.072e-5
1.231,   1.073e-5
1.232,   1.077e-5
1.233,   1.082e-5
1.234,   1.083e-5
1.235,   1.085e-5
1.236,   1.091e-5
1.237,   1.093e-5
1.238,   1.093e-5
1.239,   1.095e-5
1.240,   1.102e-5
1.241,   1.103e-5
1.242,   1.105e-5
1.243,   1.107e-5
1.244,   1.108e-5
1.245,   1.112e-5
1.246,   1.115e-5
1.247,   1.117e-5
1.248,   1.120e-5
1.249,   1.120e-5
1.250,   1.127e-5
1.251,   1.130e-5
1.252,   1.132e-5
1.253,   1.130e-5
1.254,   1.134e-5
1.255,   1.134e-5
1.256,   1.137e-5
1.257,   1.139e-5
1.258,   1.141e-5
1.259,   1.144e-5
1.260,   1.144e-5
1.261,   1.148e-5
1.262,   1.150e-5
1.263,   1.153e-5
1.264,   1.155e-5
1.265,   1.157e-5
1.266,   1.157e-5
1.267,   1.160e-5
1.268,   1.163e-5
1.269,   1.164e-5
1.270,   1.165e-5
1.271,   1.165e-5
1.272,   1.171e-5
1.273,   1.169e-5
1.274,   1.172e-5
1.275,   1.176e-5
1.276,   1.175e-5
1.277,   1.179e-5
1.278,   1.180e-5
1.279,   1.177e-5
1.280,   1.182e-5
1.281,   1.187e-5
1.282,   1.183e-5
1.283,   1.189e-5
1.284,   1.189e-5
1.285,   1.194e-5
1.286,   1.194e-5
1.287,   1.195e-5
1.288,   1.197e-5
1.289,   1.198e-5
1.290,   1.200e-5
1.291,   1.201e-5
1.292,   1.204e-5
1.293,   1.206e-5
1.294,   1.206e-5
1.295,   1.207e-5
1.296,   1.209e-5
1.297,   1.214e-5
1.298,   1.213e-5
1.299,   1.218e-5
1.300,   1.215e-5
1.301,   1.218e-5
1.302,   1.223e-5
1.303,   1.226e-5
1.304,   1.223e-5
1.305,   1.226e-5
1.306,   1.230e-5
1.307,   1.231e-5
1.308,   1.234e-5
1.309,   1.237e-5
1.310,   1.239e-5
1.311,   1.240e-5
1.312,   1.245e-5
1.313,   1.245e-5
1.314,   1.245e-5
1.315,   1.247e-5
1.316,   1.248e-5
1.317,   1.254e-5
1.318,   1.257e-5
1.319,   1.262e-5
1.320,   1.263e-5
1.321,   1.265e-5
1.322,   1.266e-5
1.323,   1.268e-5
1.324,   1.270e-5
1.325,   1.274e-5
1.326,   1.277e-5
1.327,   1.278e-5
1.328,   1.286e-5
1.329,   1.287e-5
1.330,   1.285e-5
1.331,   1.292e-5
1.332,   1.295e-5
1.333,   1.297e-5
1.334,   1.301e-5
1.335,   1.307e-5
1.336,   1.309e-5
1.337,   1.311e-5
1.338,   1.313e-5
1.339,   1.321e-5
1.340,   1.321e-5
1.341,   1.326e-5
1.342,   1.331e-5
1.343,   1.335e-5
1.344,   1.339e-5
1.345,   1.342e-5
1.346,   1.347e-5
1.347,   1.352e-5
1.348,   1.354e-5
1.349,   1.357e-5
1.350,   1.360e-5
1.351,   1.365e-5
1.352,   1.371e-5
1.353,   1.372e-5
1.354,   1.376e-5
1.355,   1.383e-5
1.356,   1.382e-5
1.357,   1.387e-5
1.358,   1.395e-5
1.359,   1.396e-5
1.360,   1.403e-5
1.361,   1.406e-5
1.362,   1.409e-5
1.363,   1.414e-5
1.364,   1.420e-5
1.365,   1.428e-5
1.366,   1.429e-5
1.367,   1.432e-5
1.368,   1.439e-5
1.369,   1.444e-5
1.370,   1.449e-5
1.371,   1.461e-5
1.372,   1.462e-5
1.373,   1.465e-5
1.374,   1.469e-5
1.375,   1.477e-5
1.376,   1.481e-5
1.377,   1.487e-5
1.378,   1.492e-5
1.379,   1.499e-5
1.380,   1.506e-5
1.381,   1.514e-5
1.382,   1.523e-5
1.383,   1.523e-5
1.384,   1.534e-5
1.385,   1.540e-5
1.386,   1.549e-5
1.387,   1.561e-5
1.388,   1.564e-5
1.389,   1.574e-5
1.390,   1.585e-5
1.391,   1.593e-5
1.392,   1.603e-5
1.393,   1.612e-5
1.394,   1.619e-5
1.395,   1.635e-5
1.396,   1.644e-5
1.397,   1.657e-5
1.398,   1.669e-5
1.399,   1.680e-5
1.400,   1.696e-5
1.401,   1.710e-5
1.402,   1.725e-5
1.403,   1.742e-5
1.404,   1.756e-5
1.405,   1.776e-5
1.406,   1.797e-5
1.407,   1.815e-5
1.408,   1.838e-5
1.409,   1.855e-5
1.410,   1.874e-5
1.411,   1.902e-5
1.412,   1.928e-5
1.413,   1.956e-5
1.414,   1.985e-5
1.415,   2.014e-5
1.416,   2.047e-5
1.417,   2.081e-5
1.418,   2.115e-5
1.419,   2.152e-5
1.420,   2.194e-5
1.421,   2.236e-5
1.422,   2.281e-5
1.423,   2.323e-5
1.424,   2.374e-5
1.425,   2.425e-5
1.426,   2.478e-5
1.427,   2.539e-5
1.428,   2.599e-5
1.429,   2.662e-5
1.430,   2.733e-5
1.431,   2.804e-5
1.432,   2.878e-5
1.433,   2.956e-5
1.434,   3.036e-5
1.435,   3.125e-5
1.436,   3.218e-5
1.437,   3.314e-5
1.438,   3.421e-5
1.439,   3.525e-5
1.440,   3.639e-5
1.441,   3.752e-5
1.442,   3.865e-5
1.443,   3.997e-5
1.444,   4.137e-5
1.445,   4.277e-5
1.446,   4.429e-5
1.447,   4.584e-5
1.448,   4.753e-5
1.449,   4.927e-5
1.450,   5.109e-5
1.451,   5.301e-5
1.452,   5.498e-5
1.453,   5.705e-5
1.454,   5.920e-5
1.455,   6.141e-5
1.456,   6.384e-5
1.457,   6.637e-5
1.458,   6.892e-5
1.459,   7.170e-5
1.460,   7.454e-5
1.461,   7.755e-5
1.462,   8.067e-5
1.463,   8.385e-5
1.464,   8.723e-5
1.465,   9.072e-5
1.466,   9.437e-5
1.467,   9.819e-5
1.468,   1.022e-4
1.469,   1.063e-4
1.470,   1.106e-4
1.471,   1.151e-4
1.472,   1.198e-4
1.473,   1.246e-4
1.474,   1.296e-4
1.475,   1.349e-4
1.476,   1.403e-4
1.477,   1.460e-4
1.478,   1.519e-4
1.479,   1.581e-4
1.480,   1.644e-4
1.481,   1.710e-4
1.482,   1.779e-4
1.483,   1.850e-4
1.484,   1.923e-4
1.485,   1.999e-4
1.486,   2.078e-4
1.487,   2.159e-4
1.488,   2.244e-4
1.489,   2.332e-4
1.490,   2.424e-4
1.491,   2.518e-4
1.492,   2.614e-4
1.493,   2.715e-4
1.494,   2.819e-4
1.495,   2.926e-4
1.496,   3.038e-4
1.497,   3.152e-4
1.498,   3.270e-4
1.499,   3.392e-4
1.500,   3.518e-4
1.501,   3.647e-4
1.502,   3.780e-4
1.503,   3.917e-4
1.504,   4.059e-4
1.505,   4.204e-4
1.506,   4.352e-4
1.507,   4.505e-4
1.508,   4.663e-4
1.509,   4.826e-4
1.510,   4.990e-4
1.511,   5.157e-4
1.512,   5.330e-4
1.513,   5.506e-4
1.514,   5.685e-4
1.515,   5.868e-4
1.516,   6.054e-4
1.517,   6.247e-4
1.518,   6.438e-4
1.519,   6.633e-4
1.520,   6.835e-4
1.521,   7.041e-4
1.522,   7.247e-4
1.523,   7.458e-4
1.524,   7.669e-4
1.525,   7.885e-4
1.526,   8.102e-4
1.527,   8.322e-4
1.528,   8.546e-4
1.529,   8.771e-4
1.530,   9.001e-4
1.531,   9.229e-4
1.532,   9.456e-4
1.533,   9.689e-4
1.534,   9.922e-4
1.535,   1.016e-3
1.536,   1.040e-3
1.537,   1.064e-3
1.538,   1.088e-3
1.539,   1.112e-3
1.540,   1.136e-3
1.541,   1.160e-3
1.542,   1.185e-3
1.543,   1.210e-3
1.544,   1.235e-3
1.545,   1.259e-3
1.546,   1.284e-3
1.547,   1.308e-3
1.548,   1.333e-3
1.549,   1.357e-3
1.550,   1.382e-3
1.551,   1.406e-3
1.552,   1.431e-3
1.553,   1.455e-3
1.554,   1.480e-3
1.555,   1.504e-3
1.556,   1.528e-3
1.557,   1.554e-3
1.558,   1.579e-3
1.559,   1.603e-3
1.560,   1.627e-3
1.561,   1.652e-3
1.562,   1.676e-3
1.563,   1.700e-3
1.564,   1.724e-3
1.565,   1.748e-3
1.566,   1.772e-3
1.567,   1.795e-3
1.568,   1.819e-3
1.569,   1.843e-3
1.570,   1.867e-3
1.571,   1.891e-3
1.572,   1.914e-3
1.573,   1.938e-3
1.574,   1.963e-3
1.575,   1.988e-3
1.576,   2.013e-3
1.577,   2.038e-3
1.578,   2.062e-3
1.579,   2.085e-3
1.580,   2.108e-3
1.581,   2.132e-3
1.582,   2.157e-3
1.583,   2.181e-3
1.584,   2.205e-3
1.585,   2.229e-3
1.586,   2.251e-3
1.587,   2.276e-3
1.588,   2.301e-3
1.589,   2.326e-3
1.590,   2.350e-3
1.591,   2.374e-3
1.592,   2.398e-3
1.593,   2.422e-3
1.594,   2.446e-3
1.595,   2.471e-3
1.596,   2.493e-3
1.597,   2.516e-3
1.598,   2.541e-3
1.599,   2.564e-3
1.600,   2.588e-3
1.601,   2.611e-3
1.602,   2.632e-3
1.603,   2.655e-3
1.604,   2.678e-3
1.605,   2.704e-3
1.606,   2.726e-3
1.607,   2.748e-3
1.608,   2.769e-3
1.609,   2.791e-3
1.610,   2.817e-3
1.611,   2.839e-3
1.612,   2.864e-3
1.613,   2.887e-3
1.614,   2.906e-3
1.615,   2.927e-3
1.616,   2.948e-3
1.617,   2.975e-3
1.618,   3.000e-3
1.619,   3.022e-3
1.620,   3.045e-3
1.621,   3.067e-3
1.622,   3.087e-3
1.623,   3.106e-3
1.624,   3.127e-3
1.625,   3.149e-3
1.626,   3.169e-3
1.627,   3.190e-3
1.628,   3.214e-3
1.629,   3.241e-3
1.630,   3.260e-3
1.631,   3.279e-3
1.632,   3.299e-3
1.633,   3.316e-3
1.634,   3.337e-3
1.635,   3.357e-3
1.636,   3.378e-3
1.637,   3.400e-3
1.638,   3.426e-3
1.639,   3.447e-3
1.640,   3.467e-3
1.641,   3.487e-3
1.642,   3.504e-3
1.643,   3.519e-3
1.644,   3.535e-3
1.645,   3.555e-3
1.646,   3.578e-3
1.647,   3.600e-3
1.648,   3.618e-3
1.649,   3.637e-3
1.650,   3.660e-3
1.651,   3.678e-3
1.652,   3.690e-3
1.653,   3.704e-3
1.654,   3.723e-3
1.655,   3.740e-3
1.656,   3.758e-3
1.657,   3.773e-3
1.658,   3.785e-3
1.659,   3.801e-3
1.660,   3.821e-3
1.661,   3.834e-3
1.662,   3.844e-3
1.663,   3.863e-3
1.664,   3.885e-3
1.665,   3.901e-3
1.666,   3.915e-3
1.667,   3.947e-3
1.668,   3.970e-3
1.669,   3.982e-3
1.670,   3.994e-3
1.671,   4.005e-3
1.672,   4.015e-3
1.673,   4.021e-3
1.674,   4.034e-3
1.675,   4.048e-3
1.676,   4.062e-3
1.677,   4.076e-3
1.678,   4.082e-3
1.679,   4.094e-3
1.680,   4.106e-3
1.681,   4.117e-3
1.682,   4.122e-3
1.683,   4.131e-3
1.684,   4.141e-3
1.685,   4.147e-3
1.686,   4.153e-3
1.687,   4.159e-3
1.688,   4.170e-3
1.689,   4.180e-3
1.690,   4.184e-3
1.691,   4.190e-3
1.692,   4.199e-3
1.693,   4.201e-3
1.694,   4.206e-3
1.695,   4.218e-3
1.696,   4.219e-3
1.697,   4.224e-3
1.698,   4.230e-3
1.699,   4.238e-3
1.700,   4.244e-3
1.701,   4.249e-3
1.702,   4.251e-3
1.703,   4.253e-3
1.704,   4.260e-3
1.705,   4.262e-3
1.706,   4.261e-3
1.707,   4.260e-3
1.708,   4.263e-3
1.709,   4.265e-3
1.710,   4.268e-3
1.711,   4.271e-3
1.712,   4.274e-3
1.713,   4.277e-3
1.714,   4.273e-3
1.715,   4.275e-3
1.716,   4.271e-3
1.717,   4.274e-3
1.718,   4.277e-3
1.719,   4.276e-3
1.720,   4.275e-3
1.721,   4.274e-3
1.722,   4.271e-3
1.723,   4.268e-3
1.724,   4.268e-3
1.725,   4.263e-3
1.726,   4.256e-3
1.727,   4.256e-3
1.728,   4.252e-3
1.729,   4.246e-3
1.730,   4.244e-3
1.731,   4.245e-3
1.732,   4.238e-3
1.733,   4.233e-3
1.734,   4.233e-3
1.735,   4.226e-3
1.736,   4.223e-3
1.737,   4.213e-3
1.738,   4.205e-3
1.739,   4.198e-3
1.740,   4.192e-3
1.741,   4.187e-3
1.742,   4.185e-3
1.743,   4.178e-3
1.744,   4.166e-3
1.745,   4.162e-3
1.746,   4.157e-3
1.747,   4.149e-3
1.748,   4.141e-3
1.749,   4.135e-3
1.750,   4.129e-3
1.751,   4.125e-3
1.752,   4.116e-3
1.753,   4.108e-3
1.754,   4.101e-3
1.755,   4.088e-3
1.756,   4.084e-3
1.757,   4.079e-3
1.758,   4.068e-3
1.759,   4.058e-3
1.760,   4.052e-3
1.761,   4.047e-3
1.762,   4.037e-3
1.763,   4.029e-3
1.764,   4.020e-3
1.765,   4.008e-3
1.766,   3.998e-3
1.767,   3.992e-3
1.768,   3.985e-3
1.769,   3.975e-3
1.770,   3.966e-3
1.771,   3.955e-3
1.772,   3.945e-3
1.773,   3.935e-3
1.774,   3.925e-3
1.775,   3.914e-3
1.776,   3.905e-3
1.777,   3.898e-3
1.778,   3.888e-3
1.779,   3.879e-3
1.780,   3.870e-3
1.781,   3.857e-3
1.782,   3.847e-3
1.783,   3.834e-3
1.784,   3.824e-3
1.785,   3.814e-3
1.786,   3.804e-3
1.787,   3.797e-3
1.788,   3.788e-3
1.789,   3.777e-3
1.790,   3.764e-3
1.791,   3.756e-3
1.792,   3.747e-3
1.793,   3.740e-3
1.794,   3.730e-3
1.795,   3.718e-3
1.796,   3.707e-3
1.797,   3.697e-3
1.798,   3.687e-3
1.799,   3.676e-3
1.800,   3.666e-3
1.801,   3.654e-3
1.802,   3.643e-3
1.803,   3.634e-3
1.804,   3.625e-3
1.805,   3.616e-3
1.806,   3.605e-3
1.807,   3.595e-3
1.808,   3.584e-3
1.809,   3.572e-3
1.810,   3.561e-3
1.811,   3.555e-3
1.812,   3.543e-3
1.813,   3.532e-3
1.814,   3.520e-3
1.815,   3.513e-3