File: Experimental Records, Raw Data, and Supplementary Notes and Figures/batch1/final500/B1_BEST_500_#15_Full-254mV.txt
Dec. 14, 2022   16:35:46
Linear Sweep Voltammetry
File: d:\current work\al_oer\electrochemical test data\batch 1\500\B1_BEST_500_#15_Full-254mV.txt
Data Source:  Experiment
Instrument Model:  CHI660E
Header:
Note:

Init E (V) = 1.096

Final E (V) = 1.580

Scan Rate (V/s) = 0.010
Sample Interval (V) = 0.001
Quiet Time (sec) = 2
Sensitivity (A/V) = 0.001
Comp R (ohm) = 5.3

Results:

Channel 1:

Potential/V, Current/A
1.096,   6.279e-4
1.097,   6.080e-4
1.098,   5.820e-4
1.099,   5.533e-4
1.100,   5.346e-4
1.101,   5.146e-4
1.102,   4.976e-4
1.103,   4.824e-4
1.104,   4.705e-4
1.105,   4.569e-4
1.106,   4.461e-4
1.107,   4.358e-4
1.108,   4.257e-4
1.109,   4.177e-4
1.110,   4.093e-4
1.111,   4.019e-4
1.112,   3.943e-4
1.113,   3.880e-4
1.114,   3.824e-4
1.115,   3.758e-4
1.116,   3.711e-4
1.117,   3.656e-4
1.118,   3.608e-4
1.119,   3.565e-4
1.120,   3.516e-4
1.121,   3.477e-4
1.122,   3.439e-4
1.123,   3.400e-4
1.124,   3.363e-4
1.125,   3.327e-4
1.126,   3.295e-4
1.127,   3.257e-4
1.128,   3.229e-4
1.129,   3.190e-4
1.130,   3.170e-4
1.131,   3.138e-4
1.132,   3.111e-4
1.133,   3.088e-4
1.134,   3.059e-4
1.135,   3.035e-4
1.136,   3.009e-4
1.137,   2.988e-4
1.138,   2.970e-4
1.139,   2.944e-4
1.140,   2.920e-4
1.141,   2.901e-4
1.142,   2.882e-4
1.143,   2.858e-4
1.144,   2.839e-4
1.145,   2.823e-4
1.146,   2.806e-4
1.147,   2.786e-4
1.148,   2.766e-4
1.149,   2.754e-4
1.150,   2.732e-4
1.151,   2.719e-4
1.152,   2.697e-4
1.153,   2.685e-4
1.154,   2.670e-4
1.155,   2.658e-4
1.156,   2.638e-4
1.157,   2.624e-4
1.158,   2.612e-4
1.159,   2.590e-4
1.160,   2.585e-4
1.161,   2.574e-4
1.162,   2.564e-4
1.163,   2.546e-4
1.164,   2.521e-4
1.165,   2.521e-4
1.166,   2.506e-4
1.167,   2.494e-4
1.168,   2.484e-4
1.169,   2.472e-4
1.170,   2.478e-4
1.171,   2.442e-4
1.172,   2.447e-4
1.173,   2.415e-4
1.174,   2.417e-4
1.175,   2.404e-4
1.176,   2.398e-4
1.177,   2.376e-4
1.178,   2.373e-4
1.179,   2.371e-4
1.180,   2.360e-4
1.181,   2.336e-4
1.182,   2.353e-4
1.183,   2.319e-4
1.184,   2.321e-4
1.185,   2.301e-4
1.186,   2.300e-4
1.187,   2.295e-4
1.188,   2.286e-4
1.189,   2.274e-4
1.190,   2.260e-4
1.191,   2.264e-4
1.192,   2.260e-4
1.193,   2.233e-4
1.194,   2.235e-4
1.195,   2.235e-4
1.196,   2.216e-4
1.197,   2.205e-4
1.198,   2.210e-4
1.199,   2.192e-4
1.200,   2.190e-4
1.201,   2.183e-4
1.202,   2.176e-4
1.203,   2.166e-4
1.204,   2.169e-4
1.205,   2.145e-4
1.206,   2.146e-4
1.207,   2.152e-4
1.208,   2.125e-4
1.209,   2.131e-4
1.210,   2.115e-4
1.211,   2.124e-4
1.212,   2.107e-4
1.213,   2.112e-4
1.214,   2.079e-4
1.215,   2.101e-4
1.216,   2.077e-4
1.217,   2.092e-4
1.218,   2.072e-4
1.219,   2.079e-4
1.220,   2.050e-4
1.221,   2.073e-4
1.222,   2.029e-4
1.223,   2.049e-4
1.224,   2.049e-4
1.225,   2.023e-4
1.226,   2.046e-4
1.227,   2.015e-4
1.228,   2.024e-4
1.229,   2.024e-4
1.230,   2.000e-4
1.231,   2.005e-4
1.232,   2.005e-4
1.233,   1.982e-4
1.234,   1.985e-4
1.235,   1.999e-4
1.236,   1.994e-4
1.237,   1.960e-4
1.238,   1.968e-4
1.239,   1.980e-4
1.240,   1.962e-4
1.241,   1.954e-4
1.242,   1.965e-4
1.243,   1.951e-4
1.244,   1.933e-4
1.245,   1.925e-4
1.246,   1.938e-4
1.247,   1.955e-4
1.248,   1.923e-4
1.249,   1.917e-4
1.250,   1.937e-4
1.251,   1.899e-4
1.252,   1.910e-4
1.253,   1.906e-4
1.254,   1.895e-4
1.255,   1.897e-4
1.256,   1.906e-4
1.257,   1.872e-4
1.258,   1.890e-4
1.259,   1.887e-4
1.260,   1.876e-4
1.261,   1.870e-4
1.262,   1.866e-4
1.263,   1.871e-4
1.264,   1.856e-4
1.265,   1.864e-4
1.266,   1.876e-4
1.267,   1.852e-4
1.268,   1.848e-4
1.269,   1.871e-4
1.270,   1.837e-4
1.271,   1.826e-4
1.272,   1.835e-4
1.273,   1.845e-4
1.274,   1.839e-4
1.275,   1.831e-4
1.276,   1.826e-4
1.277,   1.838e-4
1.278,   1.783e-4
1.279,   1.819e-4
1.280,   1.792e-4
1.281,   1.833e-4
1.282,   1.825e-4
1.283,   1.779e-4
1.284,   1.787e-4
1.285,   1.813e-4
1.286,   1.790e-4
1.287,   1.805e-4
1.288,   1.798e-4
1.289,   1.755e-4
1.290,   1.785e-4
1.291,   1.767e-4
1.292,   1.809e-4
1.293,   1.772e-4
1.294,   1.749e-4
1.295,   1.750e-4
1.296,   1.777e-4
1.297,   1.789e-4
1.298,   1.747e-4
1.299,   1.744e-4
1.300,   1.733e-4
1.301,   1.791e-4
1.302,   1.734e-4
1.303,   1.704e-4
1.304,   1.727e-4
1.305,   1.763e-4
1.306,   1.720e-4
1.307,   1.706e-4
1.308,   1.732e-4
1.309,   1.731e-4
1.310,   1.726e-4
1.311,   1.661e-4
1.312,   1.757e-4
1.313,   1.730e-4
1.314,   1.670e-4
1.315,   1.731e-4
1.316,   1.715e-4
1.317,   1.691e-4
1.318,   1.712e-4
1.319,   1.720e-4
1.320,   1.652e-4
1.321,   1.740e-4
1.322,   1.704e-4
1.323,   1.671e-4
1.324,   1.702e-4
1.325,   1.689e-4
1.326,   1.689e-4
1.327,   1.693e-4
1.328,   1.694e-4
1.329,   1.645e-4
1.330,   1.720e-4
1.331,   1.674e-4
1.332,   1.691e-4
1.333,   1.688e-4
1.334,   1.654e-4
1.335,   1.702e-4
1.336,   1.669e-4
1.337,   1.669e-4
1.338,   1.694e-4
1.339,   1.649e-4
1.340,   1.727e-4
1.341,   1.611e-4
1.342,   1.714e-4
1.343,   1.663e-4
1.344,   1.664e-4
1.345,   1.694e-4
1.346,   1.643e-4
1.347,   1.692e-4
1.348,   1.638e-4
1.349,   1.707e-4
1.350,   1.644e-4
1.351,   1.691e-4
1.352,   1.627e-4
1.353,   1.720e-4
1.354,   1.656e-4
1.355,   1.701e-4
1.356,   1.644e-4
1.357,   1.680e-4
1.358,   1.664e-4
1.359,   1.675e-4
1.360,   1.670e-4
1.361,   1.641e-4
1.362,   1.698e-4
1.363,   1.627e-4
1.364,   1.707e-4
1.365,   1.613e-4
1.366,   1.712e-4
1.367,   1.686e-4
1.368,   1.674e-4
1.369,   1.723e-4
1.370,   1.649e-4
1.371,   1.686e-4
1.372,   1.645e-4
1.373,   1.678e-4
1.374,   1.772e-4
1.375,   1.621e-4
1.376,   1.676e-4
1.377,   1.719e-4
1.378,   1.706e-4
1.379,   1.708e-4
1.380,   1.690e-4
1.381,   1.720e-4
1.382,   1.709e-4
1.383,   1.744e-4
1.384,   1.711e-4
1.385,   1.717e-4
1.386,   1.757e-4
1.387,   1.697e-4
1.388,   1.784e-4
1.389,   1.772e-4
1.390,   1.709e-4
1.391,   1.851e-4
1.392,   1.726e-4
1.393,   1.772e-4
1.394,   1.793e-4
1.395,   1.835e-4
1.396,   1.815e-4
1.397,   1.790e-4
1.398,   1.915e-4
1.399,   1.797e-4
1.400,   1.872e-4
1.401,   1.905e-4
1.402,   1.887e-4
1.403,   1.902e-4
1.404,   1.908e-4
1.405,   2.017e-4
1.406,   1.930e-4
1.407,   1.995e-4
1.408,   2.045e-4
1.409,   2.022e-4
1.410,   2.102e-4
1.411,   2.077e-4
1.412,   2.072e-4
1.413,   2.175e-4
1.414,   2.285e-4
1.415,   2.156e-4
1.416,   2.210e-4
1.417,   2.331e-4
1.418,   2.414e-4
1.419,   2.324e-4
1.420,   2.359e-4
1.421,   2.516e-4
1.422,   2.544e-4
1.423,   2.568e-4
1.424,   2.627e-4
1.425,   2.745e-4
1.426,   2.750e-4
1.427,   2.840e-4
1.428,   2.869e-4
1.429,   2.965e-4
1.430,   3.072e-4
1.431,   3.130e-4
1.432,   3.252e-4
1.433,   3.324e-4
1.434,   3.447e-4
1.435,   3.499e-4
1.436,   3.604e-4
1.437,   3.696e-4
1.438,   3.816e-4
1.439,   4.028e-4
1.440,   4.156e-4
1.441,   4.278e-4
1.442,   4.391e-4
1.443,   4.521e-4
1.444,   4.692e-4
1.445,   4.852e-4
1.446,   5.048e-4
1.447,   5.233e-4
1.448,   5.379e-4
1.449,   5.601e-4
1.450,   5.799e-4
1.451,   5.966e-4
1.452,   6.150e-4
1.453,   6.409e-4
1.454,   6.691e-4
1.455,   6.939e-4
1.456,   7.168e-4
1.457,   7.446e-4
1.458,   7.719e-4
1.459,   7.959e-4
1.460,   8.326e-4
1.461,   8.624e-4
1.462,   8.899e-4
1.463,   9.266e-4
1.464,   9.609e-4
1.465,   9.934e-4
1.466,   1.031e-3
1.467,   1.073e-3
1.468,   1.109e-3
1.469,   1.142e-3
1.470,   1.186e-3
1.471,   1.232e-3
1.472,   1.275e-3
1.473,   1.321e-3
1.474,   1.369e-3
1.475,   1.414e-3
1.476,   1.460e-3
1.477,   1.511e-3
1.478,   1.566e-3
1.479,   1.616e-3
1.480,   1.663e-3
1.481,   1.722e-3
1.482,   1.784e-3
1.483,   1.836e-3
1.484,   1.894e-3
1.485,   1.957e-3
1.486,   2.012e-3
1.487,   2.083e-3
1.488,   2.147e-3
1.489,   2.210e-3
1.490,   2.279e-3
1.491,   2.354e-3
1.492,   2.428e-3
1.493,   2.493e-3
1.494,   2.556e-3
1.495,   2.629e-3
1.496,   2.691e-3
1.497,   2.758e-3
1.498,   2.837e-3
1.499,   2.912e-3
1.500,   2.994e-3
1.501,   3.081e-3
1.502,   3.164e-3
1.503,   3.250e-3
1.504,   3.337e-3
1.505,   3.426e-3
1.506,   3.524e-3
1.507,   3.624e-3
1.508,   3.727e-3
1.509,   3.836e-3
1.510,   3.948e-3
1.511,   4.054e-3
1.512,   4.166e-3
1.513,   4.276e-3
1.514,   4.393e-3
1.515,   4.516e-3
1.516,   4.644e-3
1.517,   4.767e-3
1.518,   4.897e-3
1.519,   5.036e-3
1.520,   5.171e-3
1.521,   5.297e-3
1.522,   5.429e-3
1.523,   5.574e-3
1.524,   5.711e-3
1.525,   5.854e-3
1.526,   5.999e-3
1.527,   6.148e-3
1.528,   6.317e-3
1.529,   6.479e-3
1.530,   6.643e-3
1.531,   6.813e-3
1.532,   6.984e-3
1.533,   7.137e-3
1.534,   7.314e-3
1.535,   7.501e-3
1.536,   7.685e-3
1.537,   7.852e-3
1.538,   8.050e-3
1.539,   8.386e-3
1.540,   8.563e-3
1.541,   8.762e-3
1.542,   8.986e-3
1.543,   9.182e-3
1.544,   9.384e-3
1.545,   9.566e-3
1.546,   9.793e-3
1.547,   1.002e-2
1.548,   1.006e-2
1.549,   1.006e-2
1.550,   1.006e-2
1.551,   1.006e-2
1.552,   1.006e-2
1.553,   1.006e-2
1.554,   1.006e-2
1.555,   1.006e-2
1.556,   1.006e-2
1.557,   1.006e-2
1.558,   1.006e-2
1.559,   1.006e-2
1.560,   1.006e-2
1.561,   1.006e-2
1.562,   1.006e-2
1.563,   1.006e-2
1.564,   1.006e-2
1.565,   1.006e-2
1.566,   1.006e-2
1.567,   1.006e-2
1.568,   1.006e-2
1.569,   1.006e-2
1.570,   1.006e-2
1.571,   1.006e-2
1.572,   1.006e-2
1.573,   1.006e-2
1.574,   1.006e-2
1.575,   1.006e-2
1.576,   1.006e-2
1.577,   1.006e-2
1.578,   1.006e-2
1.579,   1.006e-2
1.580,   1.006e-2