File: Experimental Records, Raw Data, and Supplementary Notes and Figures/batch1/final500/B1_BEST_500_#14_High_Quality-208mV.txt
Dec. 12, 2022   15:48:10
Linear Sweep Voltammetry
File: d:\current work\al_oer\electrochemical test data\batch 1\500\B1_BEST_500_#14_High_Quality-208mV.txt
Data Source:  Experiment
Instrument Model:  CHI660E
Header:
Note:

Init E (V) = 1.090

Final E (V) = 1.473

Scan Rate (V/s) = 0.010
Sample Interval (V) = 0.001
Quiet Time (sec) = 2
Sensitivity (A/V) = 0.001
Comp R (ohm) = 4.6

Results:

Channel 1:
Ep = 1.036V
ip = 2.322e-5A
Ah = 2.073e-4C

Potential/V, Current/A
1.090,   1.344e-4
1.091,   1.475e-4
1.092,   1.408e-4
1.093,   1.339e-4
1.094,   1.285e-4
1.095,   1.235e-4
1.096,   1.189e-4
1.097,   1.152e-4
1.098,   1.115e-4
1.099,   1.083e-4
1.100,   1.059e-4
1.101,   1.031e-4
1.102,   1.011e-4
1.103,   9.904e-5
1.104,   9.737e-5
1.105,   9.595e-5
1.106,   9.419e-5
1.107,   9.311e-5
1.108,   9.208e-5
1.109,   9.053e-5
1.110,   9.002e-5
1.111,   8.929e-5
1.112,   8.789e-5
1.113,   8.739e-5
1.114,   8.645e-5
1.115,   8.587e-5
1.116,   8.546e-5
1.117,   8.473e-5
1.118,   8.447e-5
1.119,   8.389e-5
1.120,   8.344e-5
1.121,   8.329e-5
1.122,   8.276e-5
1.123,   8.273e-5
1.124,   8.264e-5
1.125,   8.199e-5
1.126,   8.193e-5
1.127,   8.196e-5
1.128,   8.149e-5
1.129,   8.158e-5
1.130,   8.146e-5
1.131,   8.129e-5
1.132,   8.153e-5
1.133,   8.116e-5
1.134,   8.130e-5
1.135,   8.130e-5
1.136,   8.141e-5
1.137,   8.156e-5
1.138,   8.127e-5
1.139,   8.150e-5
1.140,   8.176e-5
1.141,   8.164e-5
1.142,   8.305e-5
1.143,   8.217e-5
1.144,   8.189e-5
1.145,   8.252e-5
1.146,   8.239e-5
1.147,   8.250e-5
1.148,   8.300e-5
1.149,   8.316e-5
1.150,   8.317e-5
1.151,   8.344e-5
1.152,   8.347e-5
1.153,   8.417e-5
1.154,   8.402e-5
1.155,   8.431e-5
1.156,   8.510e-5
1.157,   8.477e-5
1.158,   8.524e-5
1.159,   8.555e-5
1.160,   8.580e-5
1.161,   8.655e-5
1.162,   8.671e-5
1.163,   8.687e-5
1.164,   8.737e-5
1.165,   8.741e-5
1.166,   8.784e-5
1.167,   8.819e-5
1.168,   8.860e-5
1.169,   8.919e-5
1.170,   8.914e-5
1.171,   8.958e-5
1.172,   9.034e-5
1.173,   9.022e-5
1.174,   9.107e-5
1.175,   9.166e-5
1.176,   9.146e-5
1.177,   9.218e-5
1.178,   9.225e-5
1.179,   9.253e-5
1.180,   9.339e-5
1.181,   9.342e-5
1.182,   9.403e-5
1.183,   9.436e-5
1.184,   9.456e-5
1.185,   9.536e-5
1.186,   9.536e-5
1.187,   9.601e-5
1.188,   9.671e-5
1.189,   9.680e-5
1.190,   9.724e-5
1.191,   9.740e-5
1.192,   9.766e-5
1.193,   9.828e-5
1.194,   9.851e-5
1.195,   9.855e-5
1.196,   9.944e-5
1.197,   9.958e-5
1.198,   9.996e-5
1.199,   1.002e-4
1.200,   1.005e-4
1.201,   1.011e-4
1.202,   1.009e-4
1.203,   1.013e-4
1.204,   1.019e-4
1.205,   1.015e-4
1.206,   1.021e-4
1.207,   1.025e-4
1.208,   1.023e-4
1.209,   1.029e-4
1.210,   1.028e-4
1.211,   1.029e-4
1.212,   1.038e-4
1.213,   1.034e-4
1.214,   1.040e-4
1.215,   1.042e-4
1.216,   1.038e-4
1.217,   1.046e-4
1.218,   1.040e-4
1.219,   1.045e-4
1.220,   1.048e-4
1.221,   1.044e-4
1.222,   1.047e-4
1.223,   1.048e-4
1.224,   1.046e-4
1.225,   1.054e-4
1.226,   1.052e-4
1.227,   1.050e-4
1.228,   1.052e-4
1.229,   1.047e-4
1.230,   1.052e-4
1.231,   1.051e-4
1.232,   1.051e-4
1.233,   1.054e-4
1.234,   1.048e-4
1.235,   1.049e-4
1.236,   1.054e-4
1.237,   1.045e-4
1.238,   1.048e-4
1.239,   1.052e-4
1.240,   1.046e-4
1.241,   1.050e-4
1.242,   1.046e-4
1.243,   1.042e-4
1.244,   1.045e-4
1.245,   1.042e-4
1.246,   1.044e-4
1.247,   1.042e-4
1.248,   1.038e-4
1.249,   1.040e-4
1.250,   1.036e-4
1.251,   1.038e-4
1.252,   1.039e-4
1.253,   1.031e-4
1.254,   1.034e-4
1.255,   1.032e-4
1.256,   1.027e-4
1.257,   1.032e-4
1.258,   1.028e-4
1.259,   1.025e-4
1.260,   1.028e-4
1.261,   1.020e-4
1.262,   1.023e-4
1.263,   1.022e-4
1.264,   1.021e-4
1.265,   1.019e-4
1.266,   1.015e-4
1.267,   1.016e-4
1.268,   1.019e-4
1.269,   1.011e-4
1.270,   1.013e-4
1.271,   1.012e-4
1.272,   1.007e-4
1.273,   1.009e-4
1.274,   1.005e-4
1.275,   1.003e-4
1.276,   1.006e-4
1.277,   1.003e-4
1.278,   1.000e-4
1.279,   9.996e-5
1.280,   9.966e-5
1.281,   9.988e-5
1.282,   9.934e-5
1.283,   9.961e-5
1.284,   9.960e-5
1.285,   9.875e-5
1.286,   9.912e-5
1.287,   9.895e-5
1.288,   9.857e-5
1.289,   9.892e-5
1.290,   9.846e-5
1.291,   9.832e-5
1.292,   9.856e-5
1.293,   9.810e-5
1.294,   9.816e-5
1.295,   9.797e-5
1.296,   9.779e-5
1.297,   9.817e-5
1.298,   9.772e-5
1.299,   9.767e-5
1.300,   9.799e-5
1.301,   9.737e-5
1.302,   9.757e-5
1.303,   9.783e-5
1.304,   9.748e-5
1.305,   9.753e-5
1.306,   9.714e-5
1.307,   9.709e-5
1.308,   9.735e-5
1.309,   9.697e-5
1.310,   9.712e-5
1.311,   9.703e-5
1.312,   9.680e-5
1.313,   9.723e-5
1.314,   9.660e-5
1.315,   9.733e-5
1.316,   9.751e-5
1.317,   9.656e-5
1.318,   9.677e-5
1.319,   9.687e-5
1.320,   9.648e-5
1.321,   9.694e-5
1.322,   9.673e-5
1.323,   9.689e-5
1.324,   9.732e-5
1.325,   9.708e-5
1.326,   9.733e-5
1.327,   9.722e-5
1.328,   9.745e-5
1.329,   9.754e-5
1.330,   9.703e-5
1.331,   9.715e-5
1.332,   9.748e-5
1.333,   9.715e-5
1.334,   9.763e-5
1.335,   9.792e-5
1.336,   9.766e-5
1.337,   9.807e-5
1.338,   9.792e-5
1.339,   9.792e-5
1.340,   9.820e-5
1.341,   9.833e-5
1.342,   9.867e-5
1.343,   9.879e-5
1.344,   9.883e-5
1.345,   9.952e-5
1.346,   9.940e-5
1.347,   9.975e-5
1.348,   1.003e-4
1.349,   9.992e-5
1.350,   1.007e-4
1.351,   1.009e-4
1.352,   1.011e-4
1.353,   1.020e-4
1.354,   1.025e-4
1.355,   1.024e-4
1.356,   1.030e-4
1.357,   1.034e-4
1.358,   1.042e-4
1.359,   1.048e-4
1.360,   1.053e-4
1.361,   1.063e-4
1.362,   1.063e-4
1.363,   1.075e-4
1.364,   1.085e-4
1.365,   1.089e-4
1.366,   1.104e-4
1.367,   1.116e-4
1.368,   1.121e-4
1.369,   1.138e-4
1.370,   1.147e-4
1.371,   1.161e-4
1.372,   1.180e-4
1.373,   1.194e-4
1.374,   1.212e-4
1.375,   1.232e-4
1.376,   1.249e-4
1.377,   1.275e-4
1.378,   1.295e-4
1.379,   1.326e-4
1.380,   1.355e-4
1.381,   1.376e-4
1.382,   1.415e-4
1.383,   1.448e-4
1.384,   1.481e-4
1.385,   1.528e-4
1.386,   1.569e-4
1.387,   1.614e-4
1.388,   1.667e-4
1.389,   1.716e-4
1.390,   1.777e-4
1.391,   1.838e-4
1.392,   1.906e-4
1.393,   1.980e-4
1.394,   2.051e-4
1.395,   2.132e-4
1.396,   2.225e-4
1.397,   2.312e-4
1.398,   2.421e-4
1.399,   2.526e-4
1.400,   2.641e-4
1.401,   2.765e-4
1.402,   2.894e-4
1.403,   3.032e-4
1.404,   3.189e-4
1.405,   3.346e-4
1.406,   3.513e-4
1.407,   3.694e-4
1.408,   3.883e-4
1.409,   4.088e-4
1.410,   4.298e-4
1.411,   4.531e-4
1.412,   4.774e-4
1.413,   5.023e-4
1.414,   5.300e-4
1.415,   5.587e-4
1.416,   5.887e-4
1.417,   6.220e-4
1.418,   6.563e-4
1.419,   6.911e-4
1.420,   7.292e-4
1.421,   7.684e-4
1.422,   8.109e-4
1.423,   8.556e-4
1.424,   9.025e-4
1.425,   9.525e-4
1.426,   1.004e-3
1.427,   1.060e-3
1.428,   1.118e-3
1.429,   1.179e-3
1.430,   1.245e-3
1.431,   1.313e-3
1.432,   1.385e-3
1.433,   1.462e-3
1.434,   1.541e-3
1.435,   1.626e-3
1.436,   1.717e-3
1.437,   1.810e-3
1.438,   1.909e-3
1.439,   2.012e-3
1.440,   2.124e-3
1.441,   2.247e-3
1.442,   2.366e-3
1.443,   2.494e-3
1.444,   2.629e-3
1.445,   2.773e-3
1.446,   2.922e-3
1.447,   3.076e-3
1.448,   3.248e-3
1.449,   3.427e-3
1.450,   3.607e-3
1.451,   3.793e-3
1.452,   3.989e-3
1.453,   4.192e-3
1.454,   4.408e-3
1.455,   4.670e-3
1.456,   4.912e-3
1.457,   5.161e-3
1.458,   5.423e-3
1.459,   5.674e-3
1.460,   5.953e-3
1.461,   6.246e-3
1.462,   6.540e-3
1.463,   6.825e-3
1.464,   7.138e-3
1.465,   7.452e-3
1.466,   7.885e-3
1.467,   8.256e-3
1.468,   8.632e-3
1.469,   9.059e-3
1.470,   9.412e-3
1.471,   9.785e-3
1.472,   1.005e-2
1.473,   1.006e-2