File: Experimental Records, Raw Data, and Supplementary Notes and Figures/batch1/final500/B1_VARIANCE_500_#11_Full-242mV.txt
Dec. 12, 2022   16:00:11
Linear Sweep Voltammetry
File: d:\current work\al_oer\electrochemical test data\batch 1\500\B1_VARIANCE_500_#11_Full-242mV.txt
Data Source:  Experiment
Instrument Model:  CHI660E
Header:
Note:

Init E (V) = 1.096

Final E (V) = 1.540

Scan Rate (V/s) = 0.010
Sample Interval (V) = 0.001
Quiet Time (sec) = 2
Sensitivity (A/V) = 0.001
Comp R (ohm) = 5.2

Results:

Channel 1:

Potential/V, Current/A
1.096,   5.209e-5
1.097,   5.533e-5
1.098,   5.351e-5
1.099,   5.103e-5
1.100,   4.890e-5
1.101,   4.694e-5
1.102,   4.518e-5
1.103,   4.365e-5
1.104,   4.228e-5
1.105,   4.102e-5
1.106,   3.998e-5
1.107,   3.893e-5
1.108,   3.805e-5
1.109,   3.732e-5
1.110,   3.665e-5
1.111,   3.597e-5
1.112,   3.534e-5
1.113,   3.495e-5
1.114,   3.430e-5
1.115,   3.374e-5
1.116,   3.340e-5
1.117,   3.305e-5
1.118,   3.261e-5
1.119,   3.229e-5
1.120,   3.186e-5
1.121,   3.161e-5
1.122,   3.134e-5
1.123,   3.104e-5
1.124,   3.086e-5
1.125,   3.059e-5
1.126,   3.039e-5
1.127,   3.027e-5
1.128,   3.004e-5
1.129,   2.994e-5
1.130,   2.986e-5
1.131,   2.963e-5
1.132,   2.959e-5
1.133,   2.944e-5
1.134,   2.930e-5
1.135,   2.929e-5
1.136,   2.919e-5
1.137,   2.909e-5
1.138,   2.904e-5
1.139,   2.896e-5
1.140,   2.897e-5
1.141,   2.887e-5
1.142,   2.885e-5
1.143,   2.889e-5
1.144,   2.878e-5
1.145,   2.879e-5
1.146,   2.882e-5
1.147,   2.875e-5
1.148,   2.875e-5
1.149,   2.876e-5
1.150,   2.875e-5
1.151,   2.879e-5
1.152,   2.876e-5
1.153,   2.884e-5
1.154,   2.887e-5
1.155,   2.886e-5
1.156,   2.893e-5
1.157,   2.890e-5
1.158,   2.894e-5
1.159,   2.904e-5
1.160,   2.897e-5
1.161,   2.907e-5
1.162,   2.916e-5
1.163,   2.916e-5
1.164,   2.927e-5
1.165,   2.928e-5
1.166,   2.930e-5
1.167,   2.949e-5
1.168,   2.952e-5
1.169,   2.958e-5
1.170,   2.966e-5
1.171,   2.970e-5
1.172,   2.983e-5
1.173,   2.984e-5
1.174,   2.994e-5
1.175,   3.005e-5
1.176,   3.003e-5
1.177,   3.016e-5
1.178,   3.026e-5
1.179,   3.027e-5
1.180,   3.046e-5
1.181,   3.055e-5
1.182,   3.054e-5
1.183,   3.072e-5
1.184,   3.072e-5
1.185,   3.081e-5
1.186,   3.093e-5
1.187,   3.102e-5
1.188,   3.114e-5
1.189,   3.120e-5
1.190,   3.125e-5
1.191,   3.144e-5
1.192,   3.146e-5
1.193,   3.160e-5
1.194,   3.171e-5
1.195,   3.174e-5
1.196,   3.186e-5
1.197,   3.189e-5
1.198,   3.202e-5
1.199,   3.220e-5
1.200,   3.219e-5
1.201,   3.223e-5
1.202,   3.240e-5
1.203,   3.244e-5
1.204,   3.260e-5
1.205,   3.266e-5
1.206,   3.276e-5
1.207,   3.289e-5
1.208,   3.283e-5
1.209,   3.293e-5
1.210,   3.302e-5
1.211,   3.304e-5
1.212,   3.321e-5
1.213,   3.322e-5
1.214,   3.328e-5
1.215,   3.343e-5
1.216,   3.341e-5
1.217,   3.352e-5
1.218,   3.361e-5
1.219,   3.365e-5
1.220,   3.373e-5
1.221,   3.377e-5
1.222,   3.386e-5
1.223,   3.394e-5
1.224,   3.388e-5
1.225,   3.402e-5
1.226,   3.412e-5
1.227,   3.404e-5
1.228,   3.421e-5
1.229,   3.424e-5
1.230,   3.418e-5
1.231,   3.433e-5
1.232,   3.441e-5
1.233,   3.441e-5
1.234,   3.442e-5
1.235,   3.438e-5
1.236,   3.454e-5
1.237,   3.445e-5
1.238,   3.452e-5
1.239,   3.466e-5
1.240,   3.452e-5
1.241,   3.466e-5
1.242,   3.467e-5
1.243,   3.460e-5
1.244,   3.470e-5
1.245,   3.474e-5
1.246,   3.471e-5
1.247,   3.477e-5
1.248,   3.466e-5
1.249,   3.477e-5
1.250,   3.483e-5
1.251,   3.477e-5
1.252,   3.485e-5
1.253,   3.481e-5
1.254,   3.480e-5
1.255,   3.488e-5
1.256,   3.476e-5
1.257,   3.494e-5
1.258,   3.492e-5
1.259,   3.479e-5
1.260,   3.493e-5
1.261,   3.488e-5
1.262,   3.486e-5
1.263,   3.490e-5
1.264,   3.488e-5
1.265,   3.487e-5
1.266,   3.488e-5
1.267,   3.486e-5
1.268,   3.493e-5
1.269,   3.489e-5
1.270,   3.499e-5
1.271,   3.505e-5
1.272,   3.487e-5
1.273,   3.495e-5
1.274,   3.494e-5
1.275,   3.489e-5
1.276,   3.496e-5
1.277,   3.498e-5
1.278,   3.491e-5
1.279,   3.503e-5
1.280,   3.494e-5
1.281,   3.499e-5
1.282,   3.502e-5
1.283,   3.509e-5
1.284,   3.511e-5
1.285,   3.505e-5
1.286,   3.509e-5
1.287,   3.513e-5
1.288,   3.501e-5
1.289,   3.511e-5
1.290,   3.515e-5
1.291,   3.505e-5
1.292,   3.516e-5
1.293,   3.512e-5
1.294,   3.510e-5
1.295,   3.521e-5
1.296,   3.517e-5
1.297,   3.516e-5
1.298,   3.524e-5
1.299,   3.524e-5
1.300,   3.528e-5
1.301,   3.521e-5
1.302,   3.527e-5
1.303,   3.534e-5
1.304,   3.526e-5
1.305,   3.533e-5
1.306,   3.540e-5
1.307,   3.535e-5
1.308,   3.548e-5
1.309,   3.548e-5
1.310,   3.546e-5
1.311,   3.554e-5
1.312,   3.553e-5
1.313,   3.558e-5
1.314,   3.565e-5
1.315,   3.563e-5
1.316,   3.573e-5
1.317,   3.570e-5
1.318,   3.574e-5
1.319,   3.581e-5
1.320,   3.581e-5
1.321,   3.599e-5
1.322,   3.617e-5
1.323,   3.601e-5
1.324,   3.615e-5
1.325,   3.613e-5
1.326,   3.615e-5
1.327,   3.625e-5
1.328,   3.628e-5
1.329,   3.632e-5
1.330,   3.643e-5
1.331,   3.644e-5
1.332,   3.657e-5
1.333,   3.659e-5
1.334,   3.670e-5
1.335,   3.686e-5
1.336,   3.678e-5
1.337,   3.695e-5
1.338,   3.706e-5
1.339,   3.703e-5
1.340,   3.718e-5
1.341,   3.724e-5
1.342,   3.732e-5
1.343,   3.745e-5
1.344,   3.746e-5
1.345,   3.757e-5
1.346,   3.767e-5
1.347,   3.782e-5
1.348,   3.794e-5
1.349,   3.801e-5
1.350,   3.812e-5
1.351,   3.833e-5
1.352,   3.835e-5
1.353,   3.859e-5
1.354,   3.877e-5
1.355,   3.883e-5
1.356,   3.904e-5
1.357,   3.923e-5
1.358,   3.939e-5
1.359,   3.982e-5
1.360,   3.997e-5
1.361,   4.007e-5
1.362,   4.030e-5
1.363,   4.053e-5
1.364,   4.081e-5
1.365,   4.104e-5
1.366,   4.135e-5
1.367,   4.167e-5
1.368,   4.186e-5
1.369,   4.231e-5
1.370,   4.273e-5
1.371,   4.300e-5
1.372,   4.354e-5
1.373,   4.401e-5
1.374,   4.437e-5
1.375,   4.492e-5
1.376,   4.541e-5
1.377,   4.611e-5
1.378,   4.681e-5
1.379,   4.744e-5
1.380,   4.819e-5
1.381,   4.891e-5
1.382,   4.971e-5
1.383,   5.068e-5
1.384,   5.152e-5
1.385,   5.267e-5
1.386,   5.385e-5
1.387,   5.479e-5
1.388,   5.615e-5
1.389,   5.741e-5
1.390,   5.884e-5
1.391,   6.051e-5
1.392,   6.205e-5
1.393,   6.386e-5
1.394,   6.577e-5
1.395,   6.775e-5
1.396,   7.001e-5
1.397,   7.233e-5
1.398,   7.492e-5
1.399,   7.782e-5
1.400,   8.046e-5
1.401,   8.354e-5
1.402,   8.691e-5
1.403,   9.023e-5
1.404,   9.407e-5
1.405,   9.794e-5
1.406,   1.021e-4
1.407,   1.066e-4
1.408,   1.113e-4
1.409,   1.164e-4
1.410,   1.217e-4
1.411,   1.275e-4
1.412,   1.334e-4
1.413,   1.396e-4
1.414,   1.463e-4
1.415,   1.536e-4
1.416,   1.608e-4
1.417,   1.688e-4
1.418,   1.772e-4
1.419,   1.857e-4
1.420,   1.949e-4
1.421,   2.044e-4
1.422,   2.145e-4
1.423,   2.253e-4
1.424,   2.365e-4
1.425,   2.482e-4
1.426,   2.606e-4
1.427,   2.734e-4
1.428,   2.870e-4
1.429,   3.010e-4
1.430,   3.159e-4
1.431,   3.315e-4
1.432,   3.475e-4
1.433,   3.644e-4
1.434,   3.820e-4
1.435,   4.003e-4
1.436,   4.197e-4
1.437,   4.398e-4
1.438,   4.607e-4
1.439,   4.824e-4
1.440,   5.050e-4
1.441,   5.286e-4
1.442,   5.531e-4
1.443,   5.785e-4
1.444,   6.053e-4
1.445,   6.328e-4
1.446,   6.614e-4
1.447,   6.911e-4
1.448,   7.221e-4
1.449,   7.542e-4
1.450,   7.875e-4
1.451,   8.218e-4
1.452,   8.577e-4
1.453,   8.946e-4
1.454,   9.330e-4
1.455,   9.728e-4
1.456,   1.014e-3
1.457,   1.056e-3
1.458,   1.100e-3
1.459,   1.145e-3
1.460,   1.193e-3
1.461,   1.241e-3
1.462,   1.291e-3
1.463,   1.343e-3
1.464,   1.396e-3
1.465,   1.451e-3
1.466,   1.507e-3
1.467,   1.565e-3
1.468,   1.626e-3
1.469,   1.687e-3
1.470,   1.750e-3
1.471,   1.815e-3
1.472,   1.882e-3
1.473,   1.951e-3
1.474,   2.021e-3
1.475,   2.094e-3
1.476,   2.168e-3
1.477,   2.244e-3
1.478,   2.321e-3
1.479,   2.401e-3
1.480,   2.482e-3
1.481,   2.566e-3
1.482,   2.651e-3
1.483,   2.738e-3
1.484,   2.827e-3
1.485,   2.917e-3
1.486,   3.010e-3
1.487,   3.104e-3
1.488,   3.201e-3
1.489,   3.300e-3
1.490,   3.399e-3
1.491,   3.500e-3
1.492,   3.604e-3
1.493,   3.708e-3
1.494,   3.815e-3
1.495,   3.923e-3
1.496,   4.037e-3
1.497,   4.151e-3
1.498,   4.265e-3
1.499,   4.380e-3
1.500,   4.496e-3
1.501,   4.614e-3
1.502,   4.732e-3
1.503,   4.850e-3
1.504,   4.969e-3
1.505,   5.091e-3
1.506,   5.212e-3
1.507,   5.334e-3
1.508,   5.459e-3
1.509,   5.586e-3
1.510,   5.717e-3
1.511,   5.846e-3
1.512,   5.975e-3
1.513,   6.110e-3
1.514,   6.247e-3
1.515,   6.378e-3
1.516,   6.508e-3
1.517,   6.647e-3
1.518,   6.786e-3
1.519,   6.942e-3
1.520,   7.085e-3
1.521,   7.221e-3
1.522,   7.360e-3
1.523,   7.494e-3
1.524,   7.636e-3
1.525,   7.804e-3
1.526,   7.948e-3
1.527,   8.081e-3
1.528,   8.210e-3
1.529,   8.344e-3
1.530,   8.485e-3
1.531,   8.654e-3
1.532,   8.840e-3
1.533,   8.992e-3
1.534,   9.141e-3
1.535,   9.297e-3
1.536,   9.468e-3
1.537,   9.629e-3
1.538,   9.781e-3
1.539,   1.002e-2
1.540,   1.006e-2