File: Experimental Records, Raw Data, and Supplementary Notes and Figures/batch1/final500/B1_VARIANCE_500_#19_Full-318mV.txt
Dec. 14, 2022   15:30:19
Linear Sweep Voltammetry
File: d:\current work\al_oer\electrochemical test data\batch 1\500\B1_VARIANCE_500_#19_Full-318mV.txt
Data Source:  Experiment
Instrument Model:  CHI660E
Header:
Note:

Init E (V) = 1.127

Final E (V) = 1.673

Scan Rate (V/s) = 0.010
Sample Interval (V) = 0.001
Quiet Time (sec) = 2
Sensitivity (A/V) = 0.001
Comp R (ohm) = 5.3

Results:

Channel 1:

Potential/V, Current/A
1.127,   3.533e-5
1.128,   3.587e-5
1.129,   3.416e-5
1.130,   3.238e-5
1.131,   3.089e-5
1.132,   2.949e-5
1.133,   2.828e-5
1.134,   2.729e-5
1.135,   2.632e-5
1.136,   2.546e-5
1.137,   2.470e-5
1.138,   2.392e-5
1.139,   2.326e-5
1.140,   2.265e-5
1.141,   2.210e-5
1.142,   2.162e-5
1.143,   2.110e-5
1.144,   2.068e-5
1.145,   2.032e-5
1.146,   1.995e-5
1.147,   1.962e-5
1.148,   1.935e-5
1.149,   1.897e-5
1.150,   1.873e-5
1.151,   1.840e-5
1.152,   1.824e-5
1.153,   1.801e-5
1.154,   1.774e-5
1.155,   1.756e-5
1.156,   1.739e-5
1.157,   1.720e-5
1.158,   1.704e-5
1.159,   1.688e-5
1.160,   1.679e-5
1.161,   1.665e-5
1.162,   1.654e-5
1.163,   1.642e-5
1.164,   1.632e-5
1.165,   1.622e-5
1.166,   1.613e-5
1.167,   1.608e-5
1.168,   1.598e-5
1.169,   1.596e-5
1.170,   1.583e-5
1.171,   1.578e-5
1.172,   1.574e-5
1.173,   1.569e-5
1.174,   1.565e-5
1.175,   1.561e-5
1.176,   1.558e-5
1.177,   1.558e-5
1.178,   1.554e-5
1.179,   1.555e-5
1.180,   1.551e-5
1.181,   1.551e-5
1.182,   1.550e-5
1.183,   1.547e-5
1.184,   1.547e-5
1.185,   1.548e-5
1.186,   1.551e-5
1.187,   1.551e-5
1.188,   1.551e-5
1.189,   1.555e-5
1.190,   1.560e-5
1.191,   1.556e-5
1.192,   1.561e-5
1.193,   1.565e-5
1.194,   1.563e-5
1.195,   1.572e-5
1.196,   1.570e-5
1.197,   1.573e-5
1.198,   1.578e-5
1.199,   1.582e-5
1.200,   1.589e-5
1.201,   1.592e-5
1.202,   1.595e-5
1.203,   1.600e-5
1.204,   1.604e-5
1.205,   1.608e-5
1.206,   1.613e-5
1.207,   1.614e-5
1.208,   1.620e-5
1.209,   1.628e-5
1.210,   1.626e-5
1.211,   1.636e-5
1.212,   1.640e-5
1.213,   1.642e-5
1.214,   1.654e-5
1.215,   1.653e-5
1.216,   1.660e-5
1.217,   1.665e-5
1.218,   1.668e-5
1.219,   1.674e-5
1.220,   1.677e-5
1.221,   1.681e-5
1.222,   1.693e-5
1.223,   1.691e-5
1.224,   1.701e-5
1.225,   1.709e-5
1.226,   1.711e-5
1.227,   1.711e-5
1.228,   1.722e-5
1.229,   1.728e-5
1.230,   1.734e-5
1.231,   1.736e-5
1.232,   1.741e-5
1.233,   1.751e-5
1.234,   1.752e-5
1.235,   1.761e-5
1.236,   1.766e-5
1.237,   1.776e-5
1.238,   1.782e-5
1.239,   1.784e-5
1.240,   1.788e-5
1.241,   1.798e-5
1.242,   1.795e-5
1.243,   1.806e-5
1.244,   1.814e-5
1.245,   1.813e-5
1.246,   1.823e-5
1.247,   1.821e-5
1.248,   1.827e-5
1.249,   1.837e-5
1.250,   1.843e-5
1.251,   1.849e-5
1.252,   1.851e-5
1.253,   1.857e-5
1.254,   1.861e-5
1.255,   1.860e-5
1.256,   1.867e-5
1.257,   1.878e-5
1.258,   1.879e-5
1.259,   1.889e-5
1.260,   1.891e-5
1.261,   1.890e-5
1.262,   1.902e-5
1.263,   1.902e-5
1.264,   1.906e-5
1.265,   1.913e-5
1.266,   1.909e-5
1.267,   1.918e-5
1.268,   1.924e-5
1.269,   1.929e-5
1.270,   1.934e-5
1.271,   1.932e-5
1.272,   1.935e-5
1.273,   1.945e-5
1.274,   1.939e-5
1.275,   1.949e-5
1.276,   1.952e-5
1.277,   1.950e-5
1.278,   1.958e-5
1.279,   1.957e-5
1.280,   1.965e-5
1.281,   1.972e-5
1.282,   1.971e-5
1.283,   1.974e-5
1.284,   1.974e-5
1.285,   1.977e-5
1.286,   1.984e-5
1.287,   1.982e-5
1.288,   1.984e-5
1.289,   1.994e-5
1.290,   1.985e-5
1.291,   1.993e-5
1.292,   1.995e-5
1.293,   1.994e-5
1.294,   2.002e-5
1.295,   2.006e-5
1.296,   2.006e-5
1.297,   2.011e-5
1.298,   2.006e-5
1.299,   2.013e-5
1.300,   2.013e-5
1.301,   2.017e-5
1.302,   2.022e-5
1.303,   2.015e-5
1.304,   2.019e-5
1.305,   2.023e-5
1.306,   2.019e-5
1.307,   2.023e-5
1.308,   2.029e-5
1.309,   2.027e-5
1.310,   2.033e-5
1.311,   2.030e-5
1.312,   2.034e-5
1.313,   2.037e-5
1.314,   2.037e-5
1.315,   2.041e-5
1.316,   2.041e-5
1.317,   2.039e-5
1.318,   2.045e-5
1.319,   2.043e-5
1.320,   2.049e-5
1.321,   2.053e-5
1.322,   2.046e-5
1.323,   2.052e-5
1.324,   2.052e-5
1.325,   2.052e-5
1.326,   2.063e-5
1.327,   2.061e-5
1.328,   2.058e-5
1.329,   2.069e-5
1.330,   2.062e-5
1.331,   2.066e-5
1.332,   2.070e-5
1.333,   2.067e-5
1.334,   2.071e-5
1.335,   2.072e-5
1.336,   2.076e-5
1.337,   2.077e-5
1.338,   2.077e-5
1.339,   2.082e-5
1.340,   2.083e-5
1.341,   2.086e-5
1.342,   2.089e-5
1.343,   2.086e-5
1.344,   2.087e-5
1.345,   2.095e-5
1.346,   2.093e-5
1.347,   2.100e-5
1.348,   2.097e-5
1.349,   2.105e-5
1.350,   2.105e-5
1.351,   2.106e-5
1.352,   2.117e-5
1.353,   2.123e-5
1.354,   2.120e-5
1.355,   2.123e-5
1.356,   2.125e-5
1.357,   2.124e-5
1.358,   2.137e-5
1.359,   2.134e-5
1.360,   2.137e-5
1.361,   2.145e-5
1.362,   2.141e-5
1.363,   2.151e-5
1.364,   2.153e-5
1.365,   2.157e-5
1.366,   2.160e-5
1.367,   2.162e-5
1.368,   2.168e-5
1.369,   2.175e-5
1.370,   2.172e-5
1.371,   2.179e-5
1.372,   2.182e-5
1.373,   2.184e-5
1.374,   2.195e-5
1.375,   2.197e-5
1.376,   2.201e-5
1.377,   2.217e-5
1.378,   2.214e-5
1.379,   2.221e-5
1.380,   2.224e-5
1.381,   2.229e-5
1.382,   2.238e-5
1.383,   2.236e-5
1.384,   2.245e-5
1.385,   2.255e-5
1.386,   2.257e-5
1.387,   2.265e-5
1.388,   2.273e-5
1.389,   2.284e-5
1.390,   2.291e-5
1.391,   2.301e-5
1.392,   2.306e-5
1.393,   2.317e-5
1.394,   2.317e-5
1.395,   2.334e-5
1.396,   2.341e-5
1.397,   2.353e-5
1.398,   2.365e-5
1.399,   2.372e-5
1.400,   2.387e-5
1.401,   2.404e-5
1.402,   2.416e-5
1.403,   2.431e-5
1.404,   2.450e-5
1.405,   2.459e-5
1.406,   2.479e-5
1.407,   2.494e-5
1.408,   2.512e-5
1.409,   2.536e-5
1.410,   2.555e-5
1.411,   2.580e-5
1.412,   2.602e-5
1.413,   2.623e-5
1.414,   2.654e-5
1.415,   2.673e-5
1.416,   2.708e-5
1.417,   2.737e-5
1.418,   2.759e-5
1.419,   2.801e-5
1.420,   2.837e-5
1.421,   2.869e-5
1.422,   2.913e-5
1.423,   2.952e-5
1.424,   2.993e-5
1.425,   3.042e-5
1.426,   3.090e-5
1.427,   3.147e-5
1.428,   3.201e-5
1.429,   3.261e-5
1.430,   3.322e-5
1.431,   3.381e-5
1.432,   3.458e-5
1.433,   3.532e-5
1.434,   3.598e-5
1.435,   3.686e-5
1.436,   3.767e-5
1.437,   3.851e-5
1.438,   3.951e-5
1.439,   4.044e-5
1.440,   4.159e-5
1.441,   4.270e-5
1.442,   4.391e-5
1.443,   4.521e-5
1.444,   4.653e-5
1.445,   4.798e-5
1.446,   4.950e-5
1.447,   5.098e-5
1.448,   5.269e-5
1.449,   5.450e-5
1.450,   5.629e-5
1.451,   5.823e-5
1.452,   6.029e-5
1.453,   6.246e-5
1.454,   6.478e-5
1.455,   6.714e-5
1.456,   6.965e-5
1.457,   7.234e-5
1.458,   7.510e-5
1.459,   7.813e-5
1.460,   8.117e-5
1.461,   8.441e-5
1.462,   8.782e-5
1.463,   9.125e-5
1.464,   9.502e-5
1.465,   9.891e-5
1.466,   1.029e-4
1.467,   1.073e-4
1.468,   1.117e-4
1.469,   1.163e-4
1.470,   1.213e-4
1.471,   1.264e-4
1.472,   1.318e-4
1.473,   1.373e-4
1.474,   1.432e-4
1.475,   1.493e-4
1.476,   1.557e-4
1.477,   1.624e-4
1.478,   1.693e-4
1.479,   1.764e-4
1.480,   1.842e-4
1.481,   1.920e-4
1.482,   2.000e-4
1.483,   2.086e-4
1.484,   2.174e-4
1.485,   2.266e-4
1.486,   2.364e-4
1.487,   2.466e-4
1.488,   2.570e-4
1.489,   2.679e-4
1.490,   2.792e-4
1.491,   2.910e-4
1.492,   3.030e-4
1.493,   3.158e-4
1.494,   3.291e-4
1.495,   3.427e-4
1.496,   3.567e-4
1.497,   3.713e-4
1.498,   3.864e-4
1.499,   4.024e-4
1.500,   4.187e-4
1.501,   4.355e-4
1.502,   4.529e-4
1.503,   4.710e-4
1.504,   4.898e-4
1.505,   5.091e-4
1.506,   5.289e-4
1.507,   5.495e-4
1.508,   5.705e-4
1.509,   5.924e-4
1.510,   6.149e-4
1.511,   6.378e-4
1.512,   6.616e-4
1.513,   6.858e-4
1.514,   7.107e-4
1.515,   7.363e-4
1.516,   7.624e-4
1.517,   7.890e-4
1.518,   8.162e-4
1.519,   8.445e-4
1.520,   8.735e-4
1.521,   9.032e-4
1.522,   9.331e-4
1.523,   9.636e-4
1.524,   9.947e-4
1.525,   1.027e-3
1.526,   1.060e-3
1.527,   1.093e-3
1.528,   1.127e-3
1.529,   1.161e-3
1.530,   1.197e-3
1.531,   1.233e-3
1.532,   1.269e-3
1.533,   1.306e-3
1.534,   1.343e-3
1.535,   1.381e-3
1.536,   1.420e-3
1.537,   1.458e-3
1.538,   1.497e-3
1.539,   1.538e-3
1.540,   1.578e-3
1.541,   1.619e-3
1.542,   1.659e-3
1.543,   1.701e-3
1.544,   1.743e-3
1.545,   1.786e-3
1.546,   1.828e-3
1.547,   1.872e-3
1.548,   1.916e-3
1.549,   1.960e-3
1.550,   2.004e-3
1.551,   2.050e-3
1.552,   2.096e-3
1.553,   2.140e-3
1.554,   2.187e-3
1.555,   2.235e-3
1.556,   2.282e-3
1.557,   2.331e-3
1.558,   2.379e-3
1.559,   2.427e-3
1.560,   2.477e-3
1.561,   2.528e-3
1.562,   2.578e-3
1.563,   2.627e-3
1.564,   2.677e-3
1.565,   2.727e-3
1.566,   2.781e-3
1.567,   2.834e-3
1.568,   2.890e-3
1.569,   2.944e-3
1.570,   2.996e-3
1.571,   3.048e-3
1.572,   3.100e-3
1.573,   3.155e-3
1.574,   3.211e-3
1.575,   3.267e-3
1.576,   3.324e-3
1.577,   3.382e-3
1.578,   3.443e-3
1.579,   3.502e-3
1.580,   3.560e-3
1.581,   3.622e-3
1.582,   3.681e-3
1.583,   3.737e-3
1.584,   3.794e-3
1.585,   3.856e-3
1.586,   3.928e-3
1.587,   4.004e-3
1.588,   4.081e-3
1.589,   4.139e-3
1.590,   4.204e-3
1.591,   4.271e-3
1.592,   4.340e-3
1.593,   4.398e-3
1.594,   4.464e-3
1.595,   4.546e-3
1.596,   4.617e-3
1.597,   4.685e-3
1.598,   4.756e-3
1.599,   4.822e-3
1.600,   4.891e-3
1.601,   4.957e-3
1.602,   5.026e-3
1.603,   5.099e-3
1.604,   5.165e-3
1.605,   5.238e-3
1.606,   5.310e-3
1.607,   5.388e-3
1.608,   5.458e-3
1.609,   5.527e-3
1.610,   5.597e-3
1.611,   5.673e-3
1.612,   5.744e-3
1.613,   5.819e-3
1.614,   5.895e-3
1.615,   5.968e-3
1.616,   6.046e-3
1.617,   6.119e-3
1.618,   6.188e-3
1.619,   6.266e-3
1.620,   6.342e-3
1.621,   6.441e-3
1.622,   6.535e-3
1.623,   6.600e-3
1.624,   6.670e-3
1.625,   6.748e-3
1.626,   6.830e-3
1.627,   6.903e-3
1.628,   6.979e-3
1.629,   7.063e-3
1.630,   7.149e-3
1.631,   7.228e-3
1.632,   7.302e-3
1.633,   7.378e-3
1.634,   7.466e-3
1.635,   7.544e-3
1.636,   7.635e-3
1.637,   7.719e-3
1.638,   7.787e-3
1.639,   7.871e-3
1.640,   7.945e-3
1.641,   8.037e-3
1.642,   8.117e-3
1.643,   8.194e-3
1.644,   8.275e-3
1.645,   8.366e-3
1.646,   8.450e-3
1.647,   8.528e-3
1.648,   8.610e-3
1.649,   8.686e-3
1.650,   8.758e-3
1.651,   8.842e-3
1.652,   8.924e-3
1.653,   9.024e-3
1.654,   9.098e-3
1.655,   9.170e-3
1.656,   9.258e-3
1.657,   9.327e-3
1.658,   9.409e-3
1.659,   9.499e-3
1.660,   9.570e-3
1.661,   9.650e-3
1.662,   9.731e-3
1.663,   9.802e-3
1.664,   9.873e-3
1.665,   9.981e-3
1.666,   1.005e-2
1.667,   1.006e-2
1.668,   1.006e-2
1.669,   1.006e-2
1.670,   1.006e-2
1.671,   1.006e-2
1.672,   1.006e-2
1.673,   1.006e-2