File: Experimental Records, Raw Data, and Supplementary Notes and Figures/batch1/final500/B1_VARIANCE_BEST_500_#6_Full-237mV.txt
Dec. 12, 2022   16:33:03
Linear Sweep Voltammetry
File: d:\current work\al_oer\electrochemical test data\batch 1\500\B1_VARIANCE_BEST_500_#6_Full-237mV.txt
Data Source:  Experiment
Instrument Model:  CHI660E
Header:
Note:

Init E (V) = 1.088

Final E (V) = 1.516

Scan Rate (V/s) = 0.010
Sample Interval (V) = 0.001
Quiet Time (sec) = 2
Sensitivity (A/V) = 0.001
Comp R (ohm) = 5.8

Results:

Channel 1:

Potential/V, Current/A
1.088,   4.364e-5
1.089,   4.700e-5
1.090,   4.503e-5
1.091,   4.298e-5
1.092,   4.130e-5
1.093,   3.980e-5
1.094,   3.839e-5
1.095,   3.735e-5
1.096,   3.624e-5
1.097,   3.518e-5
1.098,   3.431e-5
1.099,   3.342e-5
1.100,   3.270e-5
1.101,   3.199e-5
1.102,   3.143e-5
1.103,   3.089e-5
1.104,   3.028e-5
1.105,   2.983e-5
1.106,   2.946e-5
1.107,   2.890e-5
1.108,   2.868e-5
1.109,   2.835e-5
1.110,   2.790e-5
1.111,   2.766e-5
1.112,   2.733e-5
1.113,   2.710e-5
1.114,   2.706e-5
1.115,   2.679e-5
1.116,   2.657e-5
1.117,   2.634e-5
1.118,   2.610e-5
1.119,   2.601e-5
1.120,   2.579e-5
1.121,   2.573e-5
1.122,   2.564e-5
1.123,   2.537e-5
1.124,   2.535e-5
1.125,   2.523e-5
1.126,   2.509e-5
1.127,   2.513e-5
1.128,   2.495e-5
1.129,   2.487e-5
1.130,   2.503e-5
1.131,   2.495e-5
1.132,   2.494e-5
1.133,   2.486e-5
1.134,   2.483e-5
1.135,   2.482e-5
1.136,   2.471e-5
1.137,   2.466e-5
1.138,   2.473e-5
1.139,   2.461e-5
1.140,   2.471e-5
1.141,   2.465e-5
1.142,   2.465e-5
1.143,   2.472e-5
1.144,   2.461e-5
1.145,   2.469e-5
1.146,   2.480e-5
1.147,   2.483e-5
1.148,   2.482e-5
1.149,   2.486e-5
1.150,   2.485e-5
1.151,   2.501e-5
1.152,   2.495e-5
1.153,   2.504e-5
1.154,   2.521e-5
1.155,   2.509e-5
1.156,   2.527e-5
1.157,   2.531e-5
1.158,   2.533e-5
1.159,   2.553e-5
1.160,   2.554e-5
1.161,   2.559e-5
1.162,   2.575e-5
1.163,   2.572e-5
1.164,   2.587e-5
1.165,   2.597e-5
1.166,   2.599e-5
1.167,   2.620e-5
1.168,   2.615e-5
1.169,   2.632e-5
1.170,   2.647e-5
1.171,   2.648e-5
1.172,   2.665e-5
1.173,   2.683e-5
1.174,   2.680e-5
1.175,   2.701e-5
1.176,   2.697e-5
1.177,   2.713e-5
1.178,   2.728e-5
1.179,   2.732e-5
1.180,   2.743e-5
1.181,   2.755e-5
1.182,   2.755e-5
1.183,   2.781e-5
1.184,   2.775e-5
1.185,   2.797e-5
1.186,   2.818e-5
1.187,   2.804e-5
1.188,   2.832e-5
1.189,   2.841e-5
1.190,   2.836e-5
1.191,   2.863e-5
1.192,   2.865e-5
1.193,   2.869e-5
1.194,   2.890e-5
1.195,   2.887e-5
1.196,   2.903e-5
1.197,   2.913e-5
1.198,   2.925e-5
1.199,   2.939e-5
1.200,   2.937e-5
1.201,   2.946e-5
1.202,   2.964e-5
1.203,   2.959e-5
1.204,   2.975e-5
1.205,   2.980e-5
1.206,   2.982e-5
1.207,   2.996e-5
1.208,   3.003e-5
1.209,   3.014e-5
1.210,   3.023e-5
1.211,   3.027e-5
1.212,   3.030e-5
1.213,   3.040e-5
1.214,   3.035e-5
1.215,   3.054e-5
1.216,   3.050e-5
1.217,   3.056e-5
1.218,   3.067e-5
1.219,   3.052e-5
1.220,   3.069e-5
1.221,   3.076e-5
1.222,   3.069e-5
1.223,   3.084e-5
1.224,   3.081e-5
1.225,   3.073e-5
1.226,   3.074e-5
1.227,   3.076e-5
1.228,   3.079e-5
1.229,   3.085e-5
1.230,   3.083e-5
1.231,   3.088e-5
1.232,   3.075e-5
1.233,   3.087e-5
1.234,   3.096e-5
1.235,   3.084e-5
1.236,   3.092e-5
1.237,   3.101e-5
1.238,   3.091e-5
1.239,   3.102e-5
1.240,   3.089e-5
1.241,   3.090e-5
1.242,   3.103e-5
1.243,   3.089e-5
1.244,   3.093e-5
1.245,   3.088e-5
1.246,   3.092e-5
1.247,   3.097e-5
1.248,   3.088e-5
1.249,   3.097e-5
1.250,   3.103e-5
1.251,   3.080e-5
1.252,   3.098e-5
1.253,   3.102e-5
1.254,   3.095e-5
1.255,   3.108e-5
1.256,   3.099e-5
1.257,   3.107e-5
1.258,   3.106e-5
1.259,   3.096e-5
1.260,   3.099e-5
1.261,   3.098e-5
1.262,   3.105e-5
1.263,   3.111e-5
1.264,   3.102e-5
1.265,   3.105e-5
1.266,   3.116e-5
1.267,   3.096e-5
1.268,   3.111e-5
1.269,   3.115e-5
1.270,   3.106e-5
1.271,   3.114e-5
1.272,   3.108e-5
1.273,   3.111e-5
1.274,   3.124e-5
1.275,   3.125e-5
1.276,   3.127e-5
1.277,   3.128e-5
1.278,   3.118e-5
1.279,   3.136e-5
1.280,   3.129e-5
1.281,   3.137e-5
1.282,   3.151e-5
1.283,   3.141e-5
1.284,   3.163e-5
1.285,   3.162e-5
1.286,   3.163e-5
1.287,   3.176e-5
1.288,   3.182e-5
1.289,   3.180e-5
1.290,   3.194e-5
1.291,   3.193e-5
1.292,   3.200e-5
1.293,   3.202e-5
1.294,   3.211e-5
1.295,   3.226e-5
1.296,   3.223e-5
1.297,   3.240e-5
1.298,   3.251e-5
1.299,   3.242e-5
1.300,   3.267e-5
1.301,   3.275e-5
1.302,   3.269e-5
1.303,   3.297e-5
1.304,   3.293e-5
1.305,   3.296e-5
1.306,   3.318e-5
1.307,   3.324e-5
1.308,   3.333e-5
1.309,   3.343e-5
1.310,   3.346e-5
1.311,   3.364e-5
1.312,   3.370e-5
1.313,   3.401e-5
1.314,   3.417e-5
1.315,   3.406e-5
1.316,   3.419e-5
1.317,   3.435e-5
1.318,   3.446e-5
1.319,   3.467e-5
1.320,   3.469e-5
1.321,   3.479e-5
1.322,   3.501e-5
1.323,   3.500e-5
1.324,   3.519e-5
1.325,   3.536e-5
1.326,   3.550e-5
1.327,   3.572e-5
1.328,   3.567e-5
1.329,   3.585e-5
1.330,   3.604e-5
1.331,   3.612e-5
1.332,   3.637e-5
1.333,   3.639e-5
1.334,   3.654e-5
1.335,   3.677e-5
1.336,   3.679e-5
1.337,   3.702e-5
1.338,   3.715e-5
1.339,   3.725e-5
1.340,   3.741e-5
1.341,   3.750e-5
1.342,   3.776e-5
1.343,   3.795e-5
1.344,   3.784e-5
1.345,   3.844e-5
1.346,   3.843e-5
1.347,   3.868e-5
1.348,   3.855e-5
1.349,   3.918e-5
1.350,   3.859e-5
1.351,   3.981e-5
1.352,   3.941e-5
1.353,   3.925e-5
1.354,   4.036e-5
1.355,   4.067e-5
1.356,   4.047e-5
1.357,   4.078e-5
1.358,   4.076e-5
1.359,   4.074e-5
1.360,   4.205e-5
1.361,   4.175e-5
1.362,   4.092e-5
1.363,   4.355e-5
1.364,   4.390e-5
1.365,   4.408e-5
1.366,   4.242e-5
1.367,   4.229e-5
1.368,   4.517e-5
1.369,   4.831e-5
1.370,   4.545e-5
1.371,   4.246e-5
1.372,   4.925e-5
1.373,   4.539e-5
1.374,   4.697e-5
1.375,   4.841e-5
1.376,   4.812e-5
1.377,   4.813e-5
1.378,   5.227e-5
1.379,   4.783e-5
1.380,   5.070e-5
1.381,   5.299e-5
1.382,   5.383e-5
1.383,   5.338e-5
1.384,   5.447e-5
1.385,   5.523e-5
1.386,   5.610e-5
1.387,   5.661e-5
1.388,   5.702e-5
1.389,   5.893e-5
1.390,   6.333e-5
1.391,   6.113e-5
1.392,   6.293e-5
1.393,   6.629e-5
1.394,   6.610e-5
1.395,   6.717e-5
1.396,   7.265e-5
1.397,   7.135e-5
1.398,   7.190e-5
1.399,   7.570e-5
1.400,   7.812e-5
1.401,   8.052e-5
1.402,   8.382e-5
1.403,   8.738e-5
1.404,   9.020e-5
1.405,   8.887e-5
1.406,   9.489e-5
1.407,   1.006e-4
1.408,   9.824e-5
1.409,   1.078e-4
1.410,   1.097e-4
1.411,   1.097e-4
1.412,   1.209e-4
1.413,   1.243e-4
1.414,   1.276e-4
1.415,   1.328e-4
1.416,   1.390e-4
1.417,   1.453e-4
1.418,   1.523e-4
1.419,   1.572e-4
1.420,   1.628e-4
1.421,   1.705e-4
1.422,   1.841e-4
1.423,   1.915e-4
1.424,   1.941e-4
1.425,   2.133e-4
1.426,   2.165e-4
1.427,   2.316e-4
1.428,   2.401e-4
1.429,   2.587e-4
1.430,   2.637e-4
1.431,   2.879e-4
1.432,   2.932e-4
1.433,   3.101e-4
1.434,   3.353e-4
1.435,   3.488e-4
1.436,   3.622e-4
1.437,   3.854e-4
1.438,   4.124e-4
1.439,   4.356e-4
1.440,   4.573e-4
1.441,   4.801e-4
1.442,   5.060e-4
1.443,   5.351e-4
1.444,   5.664e-4
1.445,   5.977e-4
1.446,   6.305e-4
1.447,   6.688e-4
1.448,   7.043e-4
1.449,   7.446e-4
1.450,   7.872e-4
1.451,   8.288e-4
1.452,   8.770e-4
1.453,   9.223e-4
1.454,   9.725e-4
1.455,   1.022e-3
1.456,   1.075e-3
1.457,   1.135e-3
1.458,   1.195e-3
1.459,   1.263e-3
1.460,   1.329e-3
1.461,   1.401e-3
1.462,   1.468e-3
1.463,   1.545e-3
1.464,   1.615e-3
1.465,   1.705e-3
1.466,   1.791e-3
1.467,   1.887e-3
1.468,   1.974e-3
1.469,   2.068e-3
1.470,   2.173e-3
1.471,   2.286e-3
1.472,   2.389e-3
1.473,   2.491e-3
1.474,   2.622e-3
1.475,   2.737e-3
1.476,   2.848e-3
1.477,   2.992e-3
1.478,   3.104e-3
1.479,   3.247e-3
1.480,   3.364e-3
1.481,   3.504e-3
1.482,   3.646e-3
1.483,   3.825e-3
1.484,   3.994e-3
1.485,   4.199e-3
1.486,   4.402e-3
1.487,   4.613e-3
1.488,   4.822e-3
1.489,   5.046e-3
1.490,   5.266e-3
1.491,   5.493e-3
1.492,   5.726e-3
1.493,   5.961e-3
1.494,   6.202e-3
1.495,   6.452e-3
1.496,   6.689e-3
1.497,   6.933e-3
1.498,   7.165e-3
1.499,   7.400e-3
1.500,   7.645e-3
1.501,   7.884e-3
1.502,   8.118e-3
1.503,   8.362e-3
1.504,   8.608e-3
1.505,   8.844e-3
1.506,   9.077e-3
1.507,   9.307e-3
1.508,   9.542e-3
1.509,   9.752e-3
1.510,   9.977e-3
1.511,   1.006e-2
1.512,   1.006e-2
1.513,   1.006e-2
1.514,   1.006e-2
1.515,   1.006e-2
1.516,   1.006e-2