File: Experimental Records, Raw Data, and Supplementary Notes and Figures/batch1/final500/B1_VARIANCE_500_#2_Full-226mV.txt
Dec. 14, 2022   16:02:34
Linear Sweep Voltammetry
File: d:\current work\al_oer\electrochemical test data\batch 1\500\B1_VARIANCE_500_#2_Full-226mV.txt
Data Source:  Experiment
Instrument Model:  CHI660E
Header:
Note:

Init E (V) = 1.096

Final E (V) = 1.547

Scan Rate (V/s) = 0.010
Sample Interval (V) = 0.001
Quiet Time (sec) = 2
Sensitivity (A/V) = 0.001
Comp R (ohm) = 6.5

Results:

Channel 1:

Potential/V, Current/A
1.096,   3.866e-5
1.097,   4.638e-5
1.098,   4.545e-5
1.099,   4.390e-5
1.100,   4.266e-5
1.101,   4.143e-5
1.102,   4.031e-5
1.103,   3.961e-5
1.104,   3.869e-5
1.105,   3.794e-5
1.106,   3.735e-5
1.107,   3.673e-5
1.108,   3.653e-5
1.109,   3.593e-5
1.110,   3.536e-5
1.111,   3.492e-5
1.112,   3.446e-5
1.113,   3.419e-5
1.114,   3.391e-5
1.115,   3.352e-5
1.116,   3.350e-5
1.117,   3.330e-5
1.118,   3.290e-5
1.119,   3.284e-5
1.120,   3.258e-5
1.121,   3.251e-5
1.122,   3.245e-5
1.123,   3.224e-5
1.124,   3.216e-5
1.125,   3.205e-5
1.126,   3.201e-5
1.127,   3.205e-5
1.128,   3.177e-5
1.129,   3.178e-5
1.130,   3.176e-5
1.131,   3.157e-5
1.132,   3.162e-5
1.133,   3.159e-5
1.134,   3.148e-5
1.135,   3.158e-5
1.136,   3.151e-5
1.137,   3.150e-5
1.138,   3.151e-5
1.139,   3.144e-5
1.140,   3.151e-5
1.141,   3.156e-5
1.142,   3.162e-5
1.143,   3.163e-5
1.144,   3.169e-5
1.145,   3.176e-5
1.146,   3.176e-5
1.147,   3.166e-5
1.148,   3.181e-5
1.149,   3.176e-5
1.150,   3.175e-5
1.151,   3.190e-5
1.152,   3.183e-5
1.153,   3.190e-5
1.154,   3.204e-5
1.155,   3.209e-5
1.156,   3.217e-5
1.157,   3.226e-5
1.158,   3.238e-5
1.159,   3.247e-5
1.160,   3.238e-5
1.161,   3.256e-5
1.162,   3.268e-5
1.163,   3.265e-5
1.164,   3.284e-5
1.165,   3.279e-5
1.166,   3.285e-5
1.167,   3.301e-5
1.168,   3.310e-5
1.169,   3.314e-5
1.170,   3.330e-5
1.171,   3.324e-5
1.172,   3.345e-5
1.173,   3.356e-5
1.174,   3.362e-5
1.175,   3.380e-5
1.176,   3.375e-5
1.177,   3.387e-5
1.178,   3.406e-5
1.179,   3.409e-5
1.180,   3.437e-5
1.181,   3.452e-5
1.182,   3.435e-5
1.183,   3.455e-5
1.184,   3.469e-5
1.185,   3.486e-5
1.186,   3.512e-5
1.187,   3.510e-5
1.188,   3.514e-5
1.189,   3.526e-5
1.190,   3.531e-5
1.191,   3.543e-5
1.192,   3.545e-5
1.193,   3.558e-5
1.194,   3.579e-5
1.195,   3.580e-5
1.196,   3.594e-5
1.197,   3.603e-5
1.198,   3.597e-5
1.199,   3.624e-5
1.200,   3.625e-5
1.201,   3.635e-5
1.202,   3.650e-5
1.203,   3.646e-5
1.204,   3.667e-5
1.205,   3.674e-5
1.206,   3.692e-5
1.207,   3.714e-5
1.208,   3.696e-5
1.209,   3.706e-5
1.210,   3.724e-5
1.211,   3.721e-5
1.212,   3.738e-5
1.213,   3.747e-5
1.214,   3.743e-5
1.215,   3.762e-5
1.216,   3.757e-5
1.217,   3.769e-5
1.218,   3.799e-5
1.219,   3.797e-5
1.220,   3.808e-5
1.221,   3.805e-5
1.222,   3.805e-5
1.223,   3.819e-5
1.224,   3.812e-5
1.225,   3.822e-5
1.226,   3.837e-5
1.227,   3.833e-5
1.228,   3.849e-5
1.229,   3.849e-5
1.230,   3.850e-5
1.231,   3.877e-5
1.232,   3.883e-5
1.233,   3.879e-5
1.234,   3.892e-5
1.235,   3.888e-5
1.236,   3.902e-5
1.237,   3.899e-5
1.238,   3.913e-5
1.239,   3.914e-5
1.240,   3.897e-5
1.241,   3.916e-5
1.242,   3.926e-5
1.243,   3.915e-5
1.244,   3.926e-5
1.245,   3.929e-5
1.246,   3.925e-5
1.247,   3.936e-5
1.248,   3.939e-5
1.249,   3.940e-5
1.250,   3.947e-5
1.251,   3.942e-5
1.252,   3.953e-5
1.253,   3.951e-5
1.254,   3.944e-5
1.255,   3.964e-5
1.256,   3.951e-5
1.257,   3.969e-5
1.258,   3.978e-5
1.259,   3.949e-5
1.260,   3.971e-5
1.261,   3.971e-5
1.262,   3.968e-5
1.263,   3.980e-5
1.264,   3.980e-5
1.265,   3.980e-5
1.266,   3.998e-5
1.267,   3.989e-5
1.268,   4.009e-5
1.269,   4.003e-5
1.270,   4.009e-5
1.271,   4.018e-5
1.272,   3.996e-5
1.273,   4.002e-5
1.274,   4.025e-5
1.275,   4.001e-5
1.276,   4.021e-5
1.277,   4.023e-5
1.278,   4.004e-5
1.279,   4.018e-5
1.280,   4.009e-5
1.281,   4.008e-5
1.282,   4.020e-5
1.283,   4.032e-5
1.284,   4.029e-5
1.285,   4.033e-5
1.286,   4.039e-5
1.287,   4.048e-5
1.288,   4.033e-5
1.289,   4.039e-5
1.290,   4.042e-5
1.291,   4.019e-5
1.292,   4.045e-5
1.293,   4.042e-5
1.294,   4.025e-5
1.295,   4.059e-5
1.296,   4.047e-5
1.297,   4.049e-5
1.298,   4.071e-5
1.299,   4.049e-5
1.300,   4.060e-5
1.301,   4.069e-5
1.302,   4.064e-5
1.303,   4.082e-5
1.304,   4.087e-5
1.305,   4.084e-5
1.306,   4.088e-5
1.307,   4.063e-5
1.308,   4.093e-5
1.309,   4.096e-5
1.310,   4.080e-5
1.311,   4.084e-5
1.312,   4.083e-5
1.313,   4.093e-5
1.314,   4.105e-5
1.315,   4.094e-5
1.316,   4.114e-5
1.317,   4.115e-5
1.318,   4.103e-5
1.319,   4.151e-5
1.320,   4.111e-5
1.321,   4.144e-5
1.322,   4.160e-5
1.323,   4.141e-5
1.324,   4.136e-5
1.325,   4.150e-5
1.326,   4.159e-5
1.327,   4.168e-5
1.328,   4.166e-5
1.329,   4.179e-5
1.330,   4.187e-5
1.331,   4.173e-5
1.332,   4.206e-5
1.333,   4.227e-5
1.334,   4.214e-5
1.335,   4.222e-5
1.336,   4.226e-5
1.337,   4.220e-5
1.338,   4.267e-5
1.339,   4.248e-5
1.340,   4.285e-5
1.341,   4.282e-5
1.342,   4.310e-5
1.343,   4.320e-5
1.344,   4.316e-5
1.345,   4.347e-5
1.346,   4.330e-5
1.347,   4.354e-5
1.348,   4.397e-5
1.349,   4.381e-5
1.350,   4.375e-5
1.351,   4.425e-5
1.352,   4.429e-5
1.353,   4.452e-5
1.354,   4.487e-5
1.355,   4.492e-5
1.356,   4.500e-5
1.357,   4.517e-5
1.358,   4.542e-5
1.359,   4.591e-5
1.360,   4.629e-5
1.361,   4.654e-5
1.362,   4.647e-5
1.363,   4.693e-5
1.364,   4.734e-5
1.365,   4.700e-5
1.366,   4.792e-5
1.367,   4.842e-5
1.368,   4.935e-5
1.369,   4.926e-5
1.370,   4.891e-5
1.371,   5.046e-5
1.372,   5.078e-5
1.373,   5.186e-5
1.374,   5.181e-5
1.375,   5.384e-5
1.376,   5.203e-5
1.377,   5.434e-5
1.378,   5.825e-5
1.379,   5.686e-5
1.380,   5.756e-5
1.381,   5.857e-5
1.382,   5.929e-5
1.383,   6.103e-5
1.384,   6.453e-5
1.385,   6.766e-5
1.386,   6.758e-5
1.387,   6.810e-5
1.388,   7.351e-5
1.389,   7.188e-5
1.390,   7.661e-5
1.391,   7.996e-5
1.392,   8.091e-5
1.393,   8.292e-5
1.394,   8.546e-5
1.395,   8.645e-5
1.396,   9.269e-5
1.397,   9.380e-5
1.398,   9.936e-5
1.399,   1.038e-4
1.400,   1.099e-4
1.401,   1.176e-4
1.402,   1.240e-4
1.403,   1.262e-4
1.404,   1.313e-4
1.405,   1.437e-4
1.406,   1.459e-4
1.407,   1.540e-4
1.408,   1.646e-4
1.409,   1.693e-4
1.410,   1.789e-4
1.411,   1.925e-4
1.412,   1.974e-4
1.413,   2.090e-4
1.414,   2.248e-4
1.415,   2.351e-4
1.416,   2.454e-4
1.417,   2.609e-4
1.418,   2.717e-4
1.419,   2.911e-4
1.420,   3.040e-4
1.421,   3.190e-4
1.422,   3.368e-4
1.423,   3.634e-4
1.424,   3.744e-4
1.425,   3.945e-4
1.426,   4.222e-4
1.427,   4.388e-4
1.428,   4.650e-4
1.429,   4.852e-4
1.430,   5.189e-4
1.431,   5.394e-4
1.432,   5.710e-4
1.433,   6.043e-4
1.434,   6.315e-4
1.435,   6.617e-4
1.436,   6.980e-4
1.437,   7.357e-4
1.438,   7.713e-4
1.439,   8.115e-4
1.440,   8.526e-4
1.441,   8.942e-4
1.442,   9.435e-4
1.443,   9.922e-4
1.444,   1.039e-3
1.445,   1.091e-3
1.446,   1.144e-3
1.447,   1.205e-3
1.448,   1.265e-3
1.449,   1.325e-3
1.450,   1.392e-3
1.451,   1.465e-3
1.452,   1.530e-3
1.453,   1.610e-3
1.454,   1.677e-3
1.455,   1.769e-3
1.456,   1.847e-3
1.457,   1.940e-3
1.458,   2.035e-3
1.459,   2.127e-3
1.460,   2.235e-3
1.461,   2.361e-3
1.462,   2.482e-3
1.463,   2.610e-3
1.464,   2.746e-3
1.465,   2.881e-3
1.466,   3.029e-3
1.467,   3.188e-3
1.468,   3.356e-3
1.469,   3.522e-3
1.470,   3.701e-3
1.471,   3.881e-3
1.472,   4.075e-3
1.473,   4.277e-3
1.474,   4.483e-3
1.475,   4.697e-3
1.476,   4.923e-3
1.477,   5.142e-3
1.478,   5.379e-3
1.479,   5.613e-3
1.480,   5.862e-3
1.481,   6.098e-3
1.482,   6.352e-3
1.483,   6.602e-3
1.484,   6.863e-3
1.485,   7.151e-3
1.486,   7.538e-3
1.487,   7.805e-3
1.488,   8.079e-3
1.489,   8.351e-3
1.490,   8.686e-3
1.491,   9.020e-3
1.492,   9.329e-3
1.493,   9.626e-3
1.494,   9.915e-3
1.495,   1.006e-2
1.496,   1.006e-2
1.497,   1.006e-2
1.498,   1.006e-2
1.499,   1.006e-2
1.500,   1.006e-2
1.501,   1.006e-2
1.502,   1.006e-2
1.503,   1.006e-2
1.504,   1.006e-2
1.505,   1.006e-2
1.506,   1.006e-2
1.507,   1.006e-2
1.508,   1.006e-2
1.509,   1.006e-2
1.510,   1.006e-2
1.511,   1.006e-2
1.512,   1.006e-2
1.513,   1.006e-2
1.514,   1.006e-2
1.515,   1.006e-2
1.516,   1.006e-2
1.517,   1.006e-2
1.518,   1.006e-2
1.519,   1.006e-2
1.520,   1.006e-2
1.521,   1.006e-2
1.522,   1.006e-2
1.523,   1.006e-2
1.524,   1.006e-2
1.525,   1.006e-2
1.526,   1.006e-2
1.527,   1.006e-2
1.528,   1.006e-2
1.529,   1.006e-2
1.530,   1.006e-2
1.531,   1.006e-2
1.532,   1.006e-2
1.533,   1.006e-2
1.534,   1.006e-2
1.535,   1.006e-2
1.536,   1.006e-2
1.537,   1.006e-2
1.538,   1.006e-2
1.539,   1.006e-2
1.540,   1.006e-2
1.541,   1.006e-2
1.542,   1.006e-2
1.543,   1.006e-2
1.544,   1.006e-2
1.545,   1.006e-2
1.546,   1.006e-2
1.547,   1.006e-2