File: Experimental Records, Raw Data, and Supplementary Notes and Figures/batch1/final500/B1_VARIANCE_500_#23_Full-380mV.txt
Dec. 14, 2022   16:24:27
Linear Sweep Voltammetry
File: d:\current work\al_oer\electrochemical test data\batch 1\500\B1_VARIANCE_500_#23_Full-380mV.txt
Data Source:  Experiment
Instrument Model:  CHI660E
Header:
Note:

Init E (V) = 1.092

Final E (V) = 1.791

Scan Rate (V/s) = 0.010
Sample Interval (V) = 0.001
Quiet Time (sec) = 2
Sensitivity (A/V) = 0.001
Comp R (ohm) = 5.7

Results:

Channel 1:

Potential/V, Current/A
1.092,   1.021e-4
1.093,   9.712e-5
1.094,   9.034e-5
1.095,   8.394e-5
1.096,   7.920e-5
1.097,   7.528e-5
1.098,   7.154e-5
1.099,   6.830e-5
1.100,   6.539e-5
1.101,   6.267e-5
1.102,   6.045e-5
1.103,   5.776e-5
1.104,   5.561e-5
1.105,   5.348e-5
1.106,   5.214e-5
1.107,   5.064e-5
1.108,   4.899e-5
1.109,   4.761e-5
1.110,   4.607e-5
1.111,   4.458e-5
1.112,   4.331e-5
1.113,   4.227e-5
1.114,   4.139e-5
1.115,   4.060e-5
1.116,   3.972e-5
1.117,   3.885e-5
1.118,   3.788e-5
1.119,   3.685e-5
1.120,   3.620e-5
1.121,   3.560e-5
1.122,   3.494e-5
1.123,   3.449e-5
1.124,   3.396e-5
1.125,   3.367e-5
1.126,   3.333e-5
1.127,   3.289e-5
1.128,   3.252e-5
1.129,   3.206e-5
1.130,   3.201e-5
1.131,   3.166e-5
1.132,   3.116e-5
1.133,   3.064e-5
1.134,   3.040e-5
1.135,   2.986e-5
1.136,   2.953e-5
1.137,   2.916e-5
1.138,   2.889e-5
1.139,   2.866e-5
1.140,   2.836e-5
1.141,   2.808e-5
1.142,   2.781e-5
1.143,   2.762e-5
1.144,   2.735e-5
1.145,   2.717e-5
1.146,   2.699e-5
1.147,   2.682e-5
1.148,   2.646e-5
1.149,   2.612e-5
1.150,   2.598e-5
1.151,   2.595e-5
1.152,   2.580e-5
1.153,   2.572e-5
1.154,   2.569e-5
1.155,   2.586e-5
1.156,   2.565e-5
1.157,   2.554e-5
1.158,   2.539e-5
1.159,   2.521e-5
1.160,   2.502e-5
1.161,   2.476e-5
1.162,   2.468e-5
1.163,   2.458e-5
1.164,   2.434e-5
1.165,   2.413e-5
1.166,   2.416e-5
1.167,   2.401e-5
1.168,   2.392e-5
1.169,   2.392e-5
1.170,   2.392e-5
1.171,   2.372e-5
1.172,   2.358e-5
1.173,   2.344e-5
1.174,   2.337e-5
1.175,   2.331e-5
1.176,   2.325e-5
1.177,   2.324e-5
1.178,   2.316e-5
1.179,   2.310e-5
1.180,   2.305e-5
1.181,   2.300e-5
1.182,   2.307e-5
1.183,   2.310e-5
1.184,   2.307e-5
1.185,   2.303e-5
1.186,   2.305e-5
1.187,   2.298e-5
1.188,   2.292e-5
1.189,   2.285e-5
1.190,   2.282e-5
1.191,   2.275e-5
1.192,   2.278e-5
1.193,   2.272e-5
1.194,   2.264e-5
1.195,   2.254e-5
1.196,   2.253e-5
1.197,   2.253e-5
1.198,   2.249e-5
1.199,   2.255e-5
1.200,   2.271e-5
1.201,   2.276e-5
1.202,   2.267e-5
1.203,   2.266e-5
1.204,   2.260e-5
1.205,   2.260e-5
1.206,   2.254e-5
1.207,   2.253e-5
1.208,   2.272e-5
1.209,   2.269e-5
1.210,   2.257e-5
1.211,   2.265e-5
1.212,   2.269e-5
1.213,   2.268e-5
1.214,   2.265e-5
1.215,   2.260e-5
1.216,   2.271e-5
1.217,   2.271e-5
1.218,   2.276e-5
1.219,   2.278e-5
1.220,   2.277e-5
1.221,   2.294e-5
1.222,   2.301e-5
1.223,   2.277e-5
1.224,   2.277e-5
1.225,   2.276e-5
1.226,   2.283e-5
1.227,   2.286e-5
1.228,   2.283e-5
1.229,   2.287e-5
1.230,   2.300e-5
1.231,   2.303e-5
1.232,   2.311e-5
1.233,   2.309e-5
1.234,   2.315e-5
1.235,   2.320e-5
1.236,   2.318e-5
1.237,   2.318e-5
1.238,   2.323e-5
1.239,   2.325e-5
1.240,   2.335e-5
1.241,   2.335e-5
1.242,   2.336e-5
1.243,   2.341e-5
1.244,   2.346e-5
1.245,   2.338e-5
1.246,   2.336e-5
1.247,   2.339e-5
1.248,   2.336e-5
1.249,   2.328e-5
1.250,   2.344e-5
1.251,   2.355e-5
1.252,   2.362e-5
1.253,   2.372e-5
1.254,   2.369e-5
1.255,   2.373e-5
1.256,   2.385e-5
1.257,   2.384e-5
1.258,   2.393e-5
1.259,   2.394e-5
1.260,   2.390e-5
1.261,   2.397e-5
1.262,   2.395e-5
1.263,   2.392e-5
1.264,   2.388e-5
1.265,   2.390e-5
1.266,   2.395e-5
1.267,   2.398e-5
1.268,   2.392e-5
1.269,   2.400e-5
1.270,   2.400e-5
1.271,   2.400e-5
1.272,   2.404e-5
1.273,   2.411e-5
1.274,   2.422e-5
1.275,   2.421e-5
1.276,   2.426e-5
1.277,   2.434e-5
1.278,   2.435e-5
1.279,   2.432e-5
1.280,   2.433e-5
1.281,   2.440e-5
1.282,   2.447e-5
1.283,   2.453e-5
1.284,   2.452e-5
1.285,   2.464e-5
1.286,   2.467e-5
1.287,   2.462e-5
1.288,   2.468e-5
1.289,   2.469e-5
1.290,   2.470e-5
1.291,   2.483e-5
1.292,   2.481e-5
1.293,   2.488e-5
1.294,   2.497e-5
1.295,   2.493e-5
1.296,   2.487e-5
1.297,   2.498e-5
1.298,   2.498e-5
1.299,   2.492e-5
1.300,   2.497e-5
1.301,   2.505e-5
1.302,   2.501e-5
1.303,   2.503e-5
1.304,   2.511e-5
1.305,   2.516e-5
1.306,   2.527e-5
1.307,   2.522e-5
1.308,   2.518e-5
1.309,   2.526e-5
1.310,   2.529e-5
1.311,   2.529e-5
1.312,   2.534e-5
1.313,   2.534e-5
1.314,   2.537e-5
1.315,   2.543e-5
1.316,   2.545e-5
1.317,   2.569e-5
1.318,   2.590e-5
1.319,   2.583e-5
1.320,   2.587e-5
1.321,   2.581e-5
1.322,   2.580e-5
1.323,   2.579e-5
1.324,   2.579e-5
1.325,   2.579e-5
1.326,   2.588e-5
1.327,   2.596e-5
1.328,   2.602e-5
1.329,   2.613e-5
1.330,   2.612e-5
1.331,   2.618e-5
1.332,   2.621e-5
1.333,   2.626e-5
1.334,   2.636e-5
1.335,   2.640e-5
1.336,   2.639e-5
1.337,   2.642e-5
1.338,   2.652e-5
1.339,   2.652e-5
1.340,   2.655e-5
1.341,   2.656e-5
1.342,   2.661e-5
1.343,   2.681e-5
1.344,   2.688e-5
1.345,   2.688e-5
1.346,   2.688e-5
1.347,   2.698e-5
1.348,   2.699e-5
1.349,   2.706e-5
1.350,   2.708e-5
1.351,   2.710e-5
1.352,   2.719e-5
1.353,   2.715e-5
1.354,   2.710e-5
1.355,   2.714e-5
1.356,   2.725e-5
1.357,   2.734e-5
1.358,   2.746e-5
1.359,   2.753e-5
1.360,   2.767e-5
1.361,   2.778e-5
1.362,   2.790e-5
1.363,   2.802e-5
1.364,   2.812e-5
1.365,   2.824e-5
1.366,   2.836e-5
1.367,   2.848e-5
1.368,   2.868e-5
1.369,   2.877e-5
1.370,   2.884e-5
1.371,   2.898e-5
1.372,   2.906e-5
1.373,   2.930e-5
1.374,   2.950e-5
1.375,   2.969e-5
1.376,   2.999e-5
1.377,   3.027e-5
1.378,   3.056e-5
1.379,   3.081e-5
1.380,   3.100e-5
1.381,   3.133e-5
1.382,   3.155e-5
1.383,   3.180e-5
1.384,   3.219e-5
1.385,   3.254e-5
1.386,   3.287e-5
1.387,   3.328e-5
1.388,   3.370e-5
1.389,   3.414e-5
1.390,   3.466e-5
1.391,   3.524e-5
1.392,   3.580e-5
1.393,   3.631e-5
1.394,   3.693e-5
1.395,   3.750e-5
1.396,   3.802e-5
1.397,   3.870e-5
1.398,   3.939e-5
1.399,   4.007e-5
1.400,   4.084e-5
1.401,   4.165e-5
1.402,   4.255e-5
1.403,   4.338e-5
1.404,   4.418e-5
1.405,   4.520e-5
1.406,   4.618e-5
1.407,   4.714e-5
1.408,   4.815e-5
1.409,   4.925e-5
1.410,   5.047e-5
1.411,   5.169e-5
1.412,   5.284e-5
1.413,   5.415e-5
1.414,   5.551e-5
1.415,   5.667e-5
1.416,   5.800e-5
1.417,   5.941e-5
1.418,   6.090e-5
1.419,   6.231e-5
1.420,   6.371e-5
1.421,   6.533e-5
1.422,   6.694e-5
1.423,   6.844e-5
1.424,   7.017e-5
1.425,   7.180e-5
1.426,   7.366e-5
1.427,   7.549e-5
1.428,   7.740e-5
1.429,   7.947e-5
1.430,   8.159e-5
1.431,   8.349e-5
1.432,   8.569e-5
1.433,   8.784e-5
1.434,   9.003e-5
1.435,   9.237e-5
1.436,   9.479e-5
1.437,   9.726e-5
1.438,   9.986e-5
1.439,   1.025e-4
1.440,   1.053e-4
1.441,   1.081e-4
1.442,   1.111e-4
1.443,   1.142e-4
1.444,   1.173e-4
1.445,   1.205e-4
1.446,   1.238e-4
1.447,   1.272e-4
1.448,   1.308e-4
1.449,   1.344e-4
1.450,   1.381e-4
1.451,   1.419e-4
1.452,   1.458e-4
1.453,   1.497e-4
1.454,   1.539e-4
1.455,   1.581e-4
1.456,   1.624e-4
1.457,   1.668e-4
1.458,   1.713e-4
1.459,   1.758e-4
1.460,   1.804e-4
1.461,   1.852e-4
1.462,   1.900e-4
1.463,   1.948e-4
1.464,   1.997e-4
1.465,   2.049e-4
1.466,   2.102e-4
1.467,   2.153e-4
1.468,   2.205e-4
1.469,   2.260e-4
1.470,   2.315e-4
1.471,   2.371e-4
1.472,   2.428e-4
1.473,   2.484e-4
1.474,   2.542e-4
1.475,   2.600e-4
1.476,   2.658e-4
1.477,   2.717e-4
1.478,   2.778e-4
1.479,   2.840e-4
1.480,   2.901e-4
1.481,   2.963e-4
1.482,   3.027e-4
1.483,   3.092e-4
1.484,   3.158e-4
1.485,   3.223e-4
1.486,   3.288e-4
1.487,   3.354e-4
1.488,   3.424e-4
1.489,   3.490e-4
1.490,   3.560e-4
1.491,   3.631e-4
1.492,   3.699e-4
1.493,   3.768e-4
1.494,   3.839e-4
1.495,   3.913e-4
1.496,   3.986e-4
1.497,   4.059e-4
1.498,   4.132e-4
1.499,   4.205e-4
1.500,   4.279e-4
1.501,   4.356e-4
1.502,   4.430e-4
1.503,   4.505e-4
1.504,   4.582e-4
1.505,   4.661e-4
1.506,   4.738e-4
1.507,   4.813e-4
1.508,   4.894e-4
1.509,   4.972e-4
1.510,   5.053e-4
1.511,   5.133e-4
1.512,   5.215e-4
1.513,   5.294e-4
1.514,   5.377e-4
1.515,   5.460e-4
1.516,   5.547e-4
1.517,   5.631e-4
1.518,   5.715e-4
1.519,   5.803e-4
1.520,   5.895e-4
1.521,   5.980e-4
1.522,   6.066e-4
1.523,   6.155e-4
1.524,   6.247e-4
1.525,   6.337e-4
1.526,   6.424e-4
1.527,   6.519e-4
1.528,   6.610e-4
1.529,   6.706e-4
1.530,   6.800e-4
1.531,   6.896e-4
1.532,   6.998e-4
1.533,   7.097e-4
1.534,   7.194e-4
1.535,   7.295e-4
1.536,   7.405e-4
1.537,   7.516e-4
1.538,   7.624e-4
1.539,   7.719e-4
1.540,   7.814e-4
1.541,   7.922e-4
1.542,   8.037e-4
1.543,   8.154e-4
1.544,   8.274e-4
1.545,   8.392e-4
1.546,   8.509e-4
1.547,   8.613e-4
1.548,   8.734e-4
1.549,   8.849e-4
1.550,   8.972e-4
1.551,   9.092e-4
1.552,   9.213e-4
1.553,   9.335e-4
1.554,   9.459e-4
1.555,   9.586e-4
1.556,   9.716e-4
1.557,   9.850e-4
1.558,   9.979e-4
1.559,   1.013e-3
1.560,   1.027e-3
1.561,   1.038e-3
1.562,   1.050e-3
1.563,   1.064e-3
1.564,   1.078e-3
1.565,   1.091e-3
1.566,   1.107e-3
1.567,   1.120e-3
1.568,   1.133e-3
1.569,   1.148e-3
1.570,   1.162e-3
1.571,   1.178e-3
1.572,   1.193e-3
1.573,   1.210e-3
1.574,   1.226e-3
1.575,   1.241e-3
1.576,   1.257e-3
1.577,   1.274e-3
1.578,   1.293e-3
1.579,   1.310e-3
1.580,   1.330e-3
1.581,   1.348e-3
1.582,   1.363e-3
1.583,   1.379e-3
1.584,   1.397e-3
1.585,   1.415e-3
1.586,   1.433e-3
1.587,   1.451e-3
1.588,   1.469e-3
1.589,   1.488e-3
1.590,   1.507e-3
1.591,   1.527e-3
1.592,   1.546e-3
1.593,   1.565e-3
1.594,   1.584e-3
1.595,   1.602e-3
1.596,   1.622e-3
1.597,   1.642e-3
1.598,   1.662e-3
1.599,   1.683e-3
1.600,   1.707e-3
1.601,   1.727e-3
1.602,   1.748e-3
1.603,   1.770e-3
1.604,   1.794e-3
1.605,   1.814e-3
1.606,   1.837e-3
1.607,   1.860e-3
1.608,   1.881e-3
1.609,   1.906e-3
1.610,   1.929e-3
1.611,   1.952e-3
1.612,   1.975e-3
1.613,   2.000e-3
1.614,   2.023e-3
1.615,   2.048e-3
1.616,   2.073e-3
1.617,   2.098e-3
1.618,   2.119e-3
1.619,   2.144e-3
1.620,   2.168e-3
1.621,   2.193e-3
1.622,   2.221e-3
1.623,   2.246e-3
1.624,   2.271e-3
1.625,   2.299e-3
1.626,   2.325e-3
1.627,   2.353e-3
1.628,   2.381e-3
1.629,   2.409e-3
1.630,   2.439e-3
1.631,   2.471e-3
1.632,   2.504e-3
1.633,   2.533e-3
1.634,   2.562e-3
1.635,   2.592e-3
1.636,   2.617e-3
1.637,   2.646e-3
1.638,   2.677e-3
1.639,   2.704e-3
1.640,   2.731e-3
1.641,   2.756e-3
1.642,   2.787e-3
1.643,   2.815e-3
1.644,   2.844e-3
1.645,   2.875e-3
1.646,   2.904e-3
1.647,   2.935e-3
1.648,   2.964e-3
1.649,   2.995e-3
1.650,   3.023e-3
1.651,   3.058e-3
1.652,   3.092e-3
1.653,   3.120e-3
1.654,   3.150e-3
1.655,   3.178e-3
1.656,   3.205e-3
1.657,   3.235e-3
1.658,   3.266e-3
1.659,   3.297e-3
1.660,   3.328e-3
1.661,   3.352e-3
1.662,   3.381e-3
1.663,   3.418e-3
1.664,   3.451e-3
1.665,   3.487e-3
1.666,   3.516e-3
1.667,   3.541e-3
1.668,   3.560e-3
1.669,   3.590e-3
1.670,   3.624e-3
1.671,   3.658e-3
1.672,   3.690e-3
1.673,   3.726e-3
1.674,   3.751e-3
1.675,   3.771e-3
1.676,   3.794e-3
1.677,   3.818e-3
1.678,   3.847e-3
1.679,   3.904e-3
1.680,   3.963e-3
1.681,   4.040e-3
1.682,   4.154e-3
1.683,   4.186e-3
1.684,   4.205e-3
1.685,   4.230e-3
1.686,   4.263e-3
1.687,   4.296e-3
1.688,   4.320e-3
1.689,   4.340e-3
1.690,   4.365e-3
1.691,   4.386e-3
1.692,   4.416e-3
1.693,   4.456e-3
1.694,   4.478e-3
1.695,   4.496e-3
1.696,   4.517e-3
1.697,   4.551e-3
1.698,   4.584e-3
1.699,   4.609e-3
1.700,   4.638e-3
1.701,   4.664e-3
1.702,   4.670e-3
1.703,   4.690e-3
1.704,   4.706e-3
1.705,   4.721e-3
1.706,   4.753e-3
1.707,   4.776e-3
1.708,   4.803e-3
1.709,   4.832e-3
1.710,   4.852e-3
1.711,   4.863e-3
1.712,   4.870e-3
1.713,   4.878e-3
1.714,   4.908e-3
1.715,   4.940e-3
1.716,   4.989e-3
1.717,   5.058e-3
1.718,   5.077e-3
1.719,   5.084e-3
1.720,   5.095e-3
1.721,   5.104e-3
1.722,   5.116e-3
1.723,   5.136e-3
1.724,   5.167e-3
1.725,   5.164e-3
1.726,   5.154e-3
1.727,   5.162e-3
1.728,   5.167e-3
1.729,   5.200e-3
1.730,   5.229e-3
1.731,   5.253e-3
1.732,   5.260e-3
1.733,   5.284e-3
1.734,   5.277e-3
1.735,   5.302e-3
1.736,   5.326e-3
1.737,   5.342e-3
1.738,   5.353e-3
1.739,   5.350e-3
1.740,   5.347e-3
1.741,   5.377e-3
1.742,   5.401e-3
1.743,   5.404e-3
1.744,   5.416e-3
1.745,   5.397e-3
1.746,   5.413e-3
1.747,   5.440e-3
1.748,   5.463e-3
1.749,   5.476e-3
1.750,   5.455e-3
1.751,   5.462e-3
1.752,   5.477e-3
1.753,   5.505e-3
1.754,   5.516e-3
1.755,   5.511e-3
1.756,   5.518e-3
1.757,   5.537e-3
1.758,   5.549e-3
1.759,   5.544e-3
1.760,   5.548e-3
1.761,   5.568e-3
1.762,   5.579e-3
1.763,   5.566e-3
1.764,   5.597e-3
1.765,   5.590e-3
1.766,   5.577e-3
1.767,   5.581e-3
1.768,   5.607e-3
1.769,   5.630e-3
1.770,   5.616e-3
1.771,   5.616e-3
1.772,   5.606e-3
1.773,   5.610e-3
1.774,   5.631e-3
1.775,   5.633e-3
1.776,   5.648e-3
1.777,   5.671e-3
1.778,   5.662e-3
1.779,   5.673e-3
1.780,   5.676e-3
1.781,   5.700e-3
1.782,   5.675e-3
1.783,   5.673e-3
1.784,   5.690e-3
1.785,   5.688e-3
1.786,   5.686e-3
1.787,   5.688e-3
1.788,   5.665e-3
1.789,   5.649e-3
1.790,   5.665e-3
1.791,   5.671e-3