File: Experimental Records, Raw Data, and Supplementary Notes and Figures/batch1/final500/B1_VARIANCE_500_#18_Full-282mV.txt
Dec. 14, 2022   16:13:35
Linear Sweep Voltammetry
File: d:\current work\al_oer\electrochemical test data\batch 1\500\B1_VARIANCE_500_#18_Full-282mV.txt
Data Source:  Experiment
Instrument Model:  CHI660E
Header:
Note:

Init E (V) = 1.104

Final E (V) = 1.640

Scan Rate (V/s) = 0.010
Sample Interval (V) = 0.001
Quiet Time (sec) = 2
Sensitivity (A/V) = 0.001
Comp R (ohm) = 5.0

Results:

Channel 1:

Potential/V, Current/A
1.104,   1.549e-4
1.105,   1.511e-4
1.106,   1.466e-4
1.107,   1.421e-4
1.108,   1.379e-4
1.109,   1.340e-4
1.110,   1.304e-4
1.111,   1.272e-4
1.112,   1.241e-4
1.113,   1.212e-4
1.114,   1.186e-4
1.115,   1.161e-4
1.116,   1.138e-4
1.117,   1.116e-4
1.118,   1.096e-4
1.119,   1.077e-4
1.120,   1.059e-4
1.121,   1.042e-4
1.122,   1.027e-4
1.123,   1.012e-4
1.124,   9.980e-5
1.125,   9.848e-5
1.126,   9.721e-5
1.127,   9.603e-5
1.128,   9.490e-5
1.129,   9.389e-5
1.130,   9.291e-5
1.131,   9.195e-5
1.132,   9.105e-5
1.133,   9.019e-5
1.134,   8.943e-5
1.135,   8.865e-5
1.136,   8.787e-5
1.137,   8.723e-5
1.138,   8.661e-5
1.139,   8.597e-5
1.140,   8.539e-5
1.141,   8.480e-5
1.142,   8.429e-5
1.143,   8.383e-5
1.144,   8.333e-5
1.145,   8.291e-5
1.146,   8.248e-5
1.147,   8.208e-5
1.148,   8.172e-5
1.149,   8.137e-5
1.150,   8.109e-5
1.151,   8.081e-5
1.152,   8.050e-5
1.153,   8.020e-5
1.154,   7.996e-5
1.155,   7.972e-5
1.156,   7.953e-5
1.157,   7.933e-5
1.158,   7.916e-5
1.159,   7.900e-5
1.160,   7.879e-5
1.161,   7.868e-5
1.162,   7.855e-5
1.163,   7.847e-5
1.164,   7.840e-5
1.165,   7.827e-5
1.166,   7.819e-5
1.167,   7.815e-5
1.168,   7.807e-5
1.169,   7.805e-5
1.170,   7.805e-5
1.171,   7.802e-5
1.172,   7.804e-5
1.173,   7.800e-5
1.174,   7.801e-5
1.175,   7.806e-5
1.176,   7.809e-5
1.177,   7.812e-5
1.178,   7.817e-5
1.179,   7.818e-5
1.180,   7.827e-5
1.181,   7.833e-5
1.182,   7.841e-5
1.183,   7.849e-5
1.184,   7.853e-5
1.185,   7.864e-5
1.186,   7.873e-5
1.187,   7.880e-5
1.188,   7.894e-5
1.189,   7.907e-5
1.190,   7.919e-5
1.191,   7.935e-5
1.192,   7.946e-5
1.193,   7.960e-5
1.194,   7.973e-5
1.195,   7.987e-5
1.196,   8.008e-5
1.197,   8.019e-5
1.198,   8.034e-5
1.199,   8.050e-5
1.200,   8.063e-5
1.201,   8.084e-5
1.202,   8.105e-5
1.203,   8.116e-5
1.204,   8.139e-5
1.205,   8.156e-5
1.206,   8.172e-5
1.207,   8.193e-5
1.208,   8.208e-5
1.209,   8.233e-5
1.210,   8.250e-5
1.211,   8.267e-5
1.212,   8.289e-5
1.213,   8.306e-5
1.214,   8.334e-5
1.215,   8.354e-5
1.216,   8.365e-5
1.217,   8.390e-5
1.218,   8.413e-5
1.219,   8.428e-5
1.220,   8.454e-5
1.221,   8.470e-5
1.222,   8.490e-5
1.223,   8.515e-5
1.224,   8.532e-5
1.225,   8.556e-5
1.226,   8.580e-5
1.227,   8.602e-5
1.228,   8.628e-5
1.229,   8.642e-5
1.230,   8.666e-5
1.231,   8.688e-5
1.232,   8.704e-5
1.233,   8.729e-5
1.234,   8.749e-5
1.235,   8.766e-5
1.236,   8.794e-5
1.237,   8.817e-5
1.238,   8.837e-5
1.239,   8.859e-5
1.240,   8.885e-5
1.241,   8.908e-5
1.242,   8.927e-5
1.243,   8.948e-5
1.244,   8.970e-5
1.245,   8.987e-5
1.246,   9.012e-5
1.247,   9.040e-5
1.248,   9.051e-5
1.249,   9.079e-5
1.250,   9.101e-5
1.251,   9.118e-5
1.252,   9.142e-5
1.253,   9.165e-5
1.254,   9.185e-5
1.255,   9.211e-5
1.256,   9.227e-5
1.257,   9.254e-5
1.258,   9.270e-5
1.259,   9.285e-5
1.260,   9.313e-5
1.261,   9.327e-5
1.262,   9.351e-5
1.263,   9.382e-5
1.264,   9.395e-5
1.265,   9.422e-5
1.266,   9.449e-5
1.267,   9.469e-5
1.268,   9.493e-5
1.269,   9.514e-5
1.270,   9.536e-5
1.271,   9.558e-5
1.272,   9.574e-5
1.273,   9.594e-5
1.274,   9.621e-5
1.275,   9.642e-5
1.276,   9.670e-5
1.277,   9.683e-5
1.278,   9.709e-5
1.279,   9.737e-5
1.280,   9.748e-5
1.281,   9.775e-5
1.282,   9.796e-5
1.283,   9.810e-5
1.284,   9.840e-5
1.285,   9.868e-5
1.286,   9.881e-5
1.287,   9.910e-5
1.288,   9.926e-5
1.289,   9.954e-5
1.290,   9.964e-5
1.291,   9.995e-5
1.292,   1.002e-4
1.293,   1.003e-4
1.294,   1.005e-4
1.295,   1.008e-4
1.296,   1.009e-4
1.297,   1.012e-4
1.298,   1.014e-4
1.299,   1.015e-4
1.300,   1.018e-4
1.301,   1.019e-4
1.302,   1.021e-4
1.303,   1.024e-4
1.304,   1.026e-4
1.305,   1.028e-4
1.306,   1.030e-4
1.307,   1.031e-4
1.308,   1.034e-4
1.309,   1.035e-4
1.310,   1.038e-4
1.311,   1.040e-4
1.312,   1.041e-4
1.313,   1.044e-4
1.314,   1.045e-4
1.315,   1.046e-4
1.316,   1.049e-4
1.317,   1.052e-4
1.318,   1.053e-4
1.319,   1.055e-4
1.320,   1.056e-4
1.321,   1.058e-4
1.322,   1.059e-4
1.323,   1.060e-4
1.324,   1.063e-4
1.325,   1.064e-4
1.326,   1.066e-4
1.327,   1.068e-4
1.328,   1.068e-4
1.329,   1.073e-4
1.330,   1.075e-4
1.331,   1.074e-4
1.332,   1.076e-4
1.333,   1.077e-4
1.334,   1.079e-4
1.335,   1.081e-4
1.336,   1.082e-4
1.337,   1.085e-4
1.338,   1.086e-4
1.339,   1.086e-4
1.340,   1.089e-4
1.341,   1.089e-4
1.342,   1.092e-4
1.343,   1.094e-4
1.344,   1.094e-4
1.345,   1.098e-4
1.346,   1.099e-4
1.347,   1.099e-4
1.348,   1.101e-4
1.349,   1.103e-4
1.350,   1.104e-4
1.351,   1.107e-4
1.352,   1.107e-4
1.353,   1.109e-4
1.354,   1.111e-4
1.355,   1.112e-4
1.356,   1.114e-4
1.357,   1.115e-4
1.358,   1.117e-4
1.359,   1.119e-4
1.360,   1.119e-4
1.361,   1.121e-4
1.362,   1.123e-4
1.363,   1.125e-4
1.364,   1.127e-4
1.365,   1.128e-4
1.366,   1.129e-4
1.367,   1.131e-4
1.368,   1.133e-4
1.369,   1.136e-4
1.370,   1.137e-4
1.371,   1.139e-4
1.372,   1.141e-4
1.373,   1.142e-4
1.374,   1.144e-4
1.375,   1.146e-4
1.376,   1.146e-4
1.377,   1.149e-4
1.378,   1.151e-4
1.379,   1.152e-4
1.380,   1.156e-4
1.381,   1.158e-4
1.382,   1.160e-4
1.383,   1.162e-4
1.384,   1.163e-4
1.385,   1.166e-4
1.386,   1.168e-4
1.387,   1.170e-4
1.388,   1.174e-4
1.389,   1.175e-4
1.390,   1.176e-4
1.391,   1.181e-4
1.392,   1.182e-4
1.393,   1.187e-4
1.394,   1.189e-4
1.395,   1.191e-4
1.396,   1.194e-4
1.397,   1.197e-4
1.398,   1.200e-4
1.399,   1.204e-4
1.400,   1.206e-4
1.401,   1.211e-4
1.402,   1.214e-4
1.403,   1.218e-4
1.404,   1.221e-4
1.405,   1.225e-4
1.406,   1.230e-4
1.407,   1.236e-4
1.408,   1.237e-4
1.409,   1.243e-4
1.410,   1.249e-4
1.411,   1.252e-4
1.412,   1.260e-4
1.413,   1.265e-4
1.414,   1.271e-4
1.415,   1.278e-4
1.416,   1.281e-4
1.417,   1.289e-4
1.418,   1.296e-4
1.419,   1.306e-4
1.420,   1.314e-4
1.421,   1.321e-4
1.422,   1.330e-4
1.423,   1.341e-4
1.424,   1.347e-4
1.425,   1.359e-4
1.426,   1.372e-4
1.427,   1.381e-4
1.428,   1.395e-4
1.429,   1.408e-4
1.430,   1.421e-4
1.431,   1.438e-4
1.432,   1.453e-4
1.433,   1.470e-4
1.434,   1.488e-4
1.435,   1.507e-4
1.436,   1.527e-4
1.437,   1.549e-4
1.438,   1.574e-4
1.439,   1.600e-4
1.440,   1.623e-4
1.441,   1.654e-4
1.442,   1.684e-4
1.443,   1.715e-4
1.444,   1.750e-4
1.445,   1.787e-4
1.446,   1.824e-4
1.447,   1.866e-4
1.448,   1.908e-4
1.449,   1.955e-4
1.450,   2.004e-4
1.451,   2.057e-4
1.452,   2.114e-4
1.453,   2.171e-4
1.454,   2.235e-4
1.455,   2.304e-4
1.456,   2.375e-4
1.457,   2.452e-4
1.458,   2.533e-4
1.459,   2.616e-4
1.460,   2.708e-4
1.461,   2.803e-4
1.462,   2.905e-4
1.463,   3.016e-4
1.464,   3.130e-4
1.465,   3.254e-4
1.466,   3.382e-4
1.467,   3.518e-4
1.468,   3.662e-4
1.469,   3.812e-4
1.470,   3.975e-4
1.471,   4.146e-4
1.472,   4.321e-4
1.473,   4.506e-4
1.474,   4.702e-4
1.475,   4.904e-4
1.476,   5.116e-4
1.477,   5.336e-4
1.478,   5.567e-4
1.479,   5.806e-4
1.480,   6.053e-4
1.481,   6.314e-4
1.482,   6.583e-4
1.483,   6.857e-4
1.484,   7.140e-4
1.485,   7.433e-4
1.486,   7.739e-4
1.487,   8.055e-4
1.488,   8.381e-4
1.489,   8.716e-4
1.490,   9.063e-4
1.491,   9.413e-4
1.492,   9.782e-4
1.493,   1.016e-3
1.494,   1.054e-3
1.495,   1.093e-3
1.496,   1.134e-3
1.497,   1.175e-3
1.498,   1.216e-3
1.499,   1.258e-3
1.500,   1.301e-3
1.501,   1.345e-3
1.502,   1.390e-3
1.503,   1.436e-3
1.504,   1.483e-3
1.505,   1.531e-3
1.506,   1.580e-3
1.507,   1.628e-3
1.508,   1.679e-3
1.509,   1.728e-3
1.510,   1.776e-3
1.511,   1.830e-3
1.512,   1.885e-3
1.513,   1.939e-3
1.514,   1.991e-3
1.515,   2.043e-3
1.516,   2.100e-3
1.517,   2.161e-3
1.518,   2.218e-3
1.519,   2.276e-3
1.520,   2.333e-3
1.521,   2.385e-3
1.522,   2.452e-3
1.523,   2.519e-3
1.524,   2.588e-3
1.525,   2.651e-3
1.526,   2.711e-3
1.527,   2.773e-3
1.528,   2.828e-3
1.529,   2.886e-3
1.530,   2.948e-3
1.531,   3.011e-3
1.532,   3.077e-3
1.533,   3.153e-3
1.534,   3.213e-3
1.535,   3.288e-3
1.536,   3.370e-3
1.537,   3.445e-3
1.538,   3.526e-3
1.539,   3.608e-3
1.540,   3.669e-3
1.541,   3.746e-3
1.542,   3.828e-3
1.543,   3.900e-3
1.544,   3.972e-3
1.545,   4.041e-3
1.546,   4.099e-3
1.547,   4.166e-3
1.548,   4.230e-3
1.549,   4.278e-3
1.550,   4.399e-3
1.551,   4.506e-3
1.552,   4.576e-3
1.553,   4.653e-3
1.554,   4.713e-3
1.555,   4.799e-3
1.556,   4.886e-3
1.557,   4.970e-3
1.558,   5.059e-3
1.559,   5.139e-3
1.560,   5.215e-3
1.561,   5.335e-3
1.562,   5.452e-3
1.563,   5.532e-3
1.564,   5.592e-3
1.565,   5.672e-3
1.566,   5.767e-3
1.567,   5.876e-3
1.568,   6.039e-3
1.569,   6.120e-3
1.570,   6.203e-3
1.571,   6.267e-3
1.572,   6.397e-3
1.573,   6.557e-3
1.574,   6.651e-3
1.575,   6.683e-3
1.576,   6.765e-3
1.577,   6.891e-3
1.578,   7.034e-3
1.579,   7.127e-3
1.580,   7.219e-3
1.581,   7.370e-3
1.582,   7.538e-3
1.583,   7.649e-3
1.584,   7.693e-3
1.585,   7.763e-3
1.586,   7.917e-3
1.587,   8.047e-3
1.588,   8.075e-3
1.589,   8.116e-3
1.590,   8.356e-3
1.591,   8.498e-3
1.592,   8.574e-3
1.593,   8.653e-3
1.594,   8.962e-3
1.595,   9.175e-3
1.596,   9.244e-3
1.597,   9.279e-3
1.598,   9.352e-3
1.599,   9.608e-3
1.600,   9.971e-3
1.601,   1.006e-2
1.602,   1.006e-2
1.603,   1.006e-2
1.604,   1.006e-2
1.605,   1.006e-2
1.606,   1.006e-2
1.607,   1.006e-2
1.608,   1.006e-2
1.609,   1.006e-2
1.610,   1.006e-2
1.611,   1.006e-2
1.612,   1.006e-2
1.613,   1.006e-2
1.614,   1.006e-2
1.615,   1.006e-2
1.616,   1.006e-2
1.617,   1.006e-2
1.618,   1.006e-2
1.619,   1.006e-2
1.620,   1.006e-2
1.621,   1.006e-2
1.622,   1.006e-2
1.623,   1.006e-2
1.624,   1.006e-2
1.625,   1.006e-2
1.626,   1.006e-2
1.627,   1.006e-2
1.628,   1.006e-2
1.629,   1.006e-2
1.630,   1.006e-2
1.631,   1.006e-2
1.632,   1.006e-2
1.633,   1.006e-2
1.634,   1.006e-2
1.635,   1.006e-2
1.636,   1.006e-2
1.637,   1.006e-2
1.638,   1.006e-2
1.639,   1.006e-2
1.640,   1.006e-2