File: Experimental Records and Raw Data/batch1/final400/B1_BEST_400_#1_High_Quality-318mV.txt
Dec. 6, 2022   16:09:15
Linear Sweep Voltammetry
File: d:\current work\al_oer\electrochemical test data\batch 1\400\B1_BEST_400_#1_High_Quality-318mV.txt
Data Source:  Experiment
Instrument Model:  CHI660E
Header:
Note:

Init E (V) = 1.090

Final E (V) = 1.619

Scan Rate (V/s) = 0.010
Sample Interval (V) = 0.001
Quiet Time (sec) = 2
Sensitivity (A/V) = 0.001
Comp R (ohm) = 4.7

Results:

Channel 1:

Potential/V, Current/A
1.090,   2.233e-5
1.091,   2.146e-5
1.092,   2.034e-5
1.093,   1.927e-5
1.094,   1.831e-5
1.095,   1.746e-5
1.096,   1.670e-5
1.097,   1.605e-5
1.098,   1.546e-5
1.099,   1.490e-5
1.100,   1.438e-5
1.101,   1.390e-5
1.102,   1.350e-5
1.103,   1.310e-5
1.104,   1.273e-5
1.105,   1.241e-5
1.106,   1.209e-5
1.107,   1.180e-5
1.108,   1.154e-5
1.109,   1.131e-5
1.110,   1.109e-5
1.111,   1.086e-5
1.112,   1.064e-5
1.113,   1.048e-5
1.114,   1.031e-5
1.115,   1.013e-5
1.116,   9.976e-6
1.117,   9.790e-6
1.118,   9.672e-6
1.119,   9.553e-6
1.120,   9.434e-6
1.121,   9.343e-6
1.122,   9.221e-6
1.123,   9.130e-6
1.124,   9.014e-6
1.125,   8.932e-6
1.126,   8.848e-6
1.127,   8.727e-6
1.128,   8.634e-6
1.129,   8.556e-6
1.130,   8.485e-6
1.131,   8.446e-6
1.132,   8.395e-6
1.133,   8.318e-6
1.134,   8.267e-6
1.135,   8.221e-6
1.136,   8.146e-6
1.137,   8.122e-6
1.138,   8.062e-6
1.139,   7.998e-6
1.140,   7.967e-6
1.141,   7.914e-6
1.142,   7.891e-6
1.143,   7.861e-6
1.144,   7.825e-6
1.145,   7.784e-6
1.146,   7.758e-6
1.147,   7.730e-6
1.148,   7.709e-6
1.149,   7.659e-6
1.150,   7.633e-6
1.151,   7.654e-6
1.152,   7.620e-6
1.153,   7.588e-6
1.154,   7.552e-6
1.155,   7.553e-6
1.156,   7.562e-6
1.157,   7.523e-6
1.158,   7.519e-6
1.159,   7.491e-6
1.160,   7.466e-6
1.161,   7.488e-6
1.162,   7.501e-6
1.163,   7.477e-6
1.164,   7.446e-6
1.165,   7.433e-6
1.166,   7.463e-6
1.167,   7.441e-6
1.168,   7.431e-6
1.169,   7.438e-6
1.170,   7.416e-6
1.171,   7.417e-6
1.172,   7.453e-6
1.173,   7.436e-6
1.174,   7.423e-6
1.175,   7.419e-6
1.176,   7.447e-6
1.177,   7.436e-6
1.178,   7.433e-6
1.179,   7.454e-6
1.180,   7.451e-6
1.181,   7.439e-6
1.182,   7.485e-6
1.183,   7.484e-6
1.184,   7.473e-6
1.185,   7.500e-6
1.186,   7.516e-6
1.187,   7.527e-6
1.188,   7.562e-6
1.189,   7.517e-6
1.190,   7.532e-6
1.191,   7.564e-6
1.192,   7.565e-6
1.193,   7.546e-6
1.194,   7.591e-6
1.195,   7.610e-6
1.196,   7.615e-6
1.197,   7.609e-6
1.198,   7.643e-6
1.199,   7.637e-6
1.200,   7.672e-6
1.201,   7.672e-6
1.202,   7.676e-6
1.203,   7.703e-6
1.204,   7.706e-6
1.205,   7.734e-6
1.206,   7.760e-6
1.207,   7.791e-6
1.208,   7.804e-6
1.209,   7.831e-6
1.210,   7.810e-6
1.211,   7.851e-6
1.212,   7.857e-6
1.213,   7.866e-6
1.214,   7.894e-6
1.215,   7.885e-6
1.216,   7.938e-6
1.217,   7.986e-6
1.218,   7.992e-6
1.219,   8.008e-6
1.220,   8.061e-6
1.221,   8.047e-6
1.222,   8.098e-6
1.223,   8.068e-6
1.224,   8.089e-6
1.225,   8.113e-6
1.226,   8.139e-6
1.227,   8.146e-6
1.228,   8.203e-6
1.229,   8.205e-6
1.230,   8.243e-6
1.231,   8.254e-6
1.232,   8.258e-6
1.233,   8.302e-6
1.234,   8.308e-6
1.235,   8.322e-6
1.236,   8.355e-6
1.237,   8.354e-6
1.238,   8.411e-6
1.239,   8.438e-6
1.240,   8.428e-6
1.241,   8.488e-6
1.242,   8.527e-6
1.243,   8.550e-6
1.244,   8.549e-6
1.245,   8.556e-6
1.246,   8.590e-6
1.247,   8.592e-6
1.248,   8.639e-6
1.249,   8.698e-6
1.250,   8.705e-6
1.251,   8.732e-6
1.252,   8.754e-6
1.253,   8.798e-6
1.254,   8.798e-6
1.255,   8.839e-6
1.256,   8.846e-6
1.257,   8.891e-6
1.258,   8.898e-6
1.259,   8.914e-6
1.260,   8.977e-6
1.261,   8.960e-6
1.262,   8.990e-6
1.263,   9.048e-6
1.264,   9.060e-6
1.265,   9.098e-6
1.266,   9.131e-6
1.267,   9.147e-6
1.268,   9.153e-6
1.269,   9.170e-6
1.270,   9.217e-6
1.271,   9.249e-6
1.272,   9.276e-6
1.273,   9.279e-6
1.274,   9.282e-6
1.275,   9.320e-6
1.276,   9.378e-6
1.277,   9.419e-6
1.278,   9.446e-6
1.279,   9.473e-6
1.280,   9.495e-6
1.281,   9.518e-6
1.282,   9.546e-6
1.283,   9.588e-6
1.284,   9.591e-6
1.285,   9.619e-6
1.286,   9.652e-6
1.287,   9.694e-6
1.288,   9.740e-6
1.289,   9.777e-6
1.290,   9.801e-6
1.291,   9.838e-6
1.292,   9.863e-6
1.293,   9.870e-6
1.294,   9.910e-6
1.295,   9.944e-6
1.296,   9.980e-6
1.297,   1.002e-5
1.298,   1.007e-5
1.299,   1.012e-5
1.300,   1.013e-5
1.301,   1.015e-5
1.302,   1.022e-5
1.303,   1.023e-5
1.304,   1.026e-5
1.305,   1.032e-5
1.306,   1.032e-5
1.307,   1.037e-5
1.308,   1.042e-5
1.309,   1.046e-5
1.310,   1.049e-5
1.311,   1.056e-5
1.312,   1.059e-5
1.313,   1.061e-5
1.314,   1.066e-5
1.315,   1.069e-5
1.316,   1.078e-5
1.317,   1.079e-5
1.318,   1.086e-5
1.319,   1.090e-5
1.320,   1.093e-5
1.321,   1.097e-5
1.322,   1.101e-5
1.323,   1.107e-5
1.324,   1.110e-5
1.325,   1.114e-5
1.326,   1.117e-5
1.327,   1.124e-5
1.328,   1.125e-5
1.329,   1.133e-5
1.330,   1.139e-5
1.331,   1.142e-5
1.332,   1.147e-5
1.333,   1.151e-5
1.334,   1.158e-5
1.335,   1.160e-5
1.336,   1.167e-5
1.337,   1.175e-5
1.338,   1.179e-5
1.339,   1.184e-5
1.340,   1.189e-5
1.341,   1.196e-5
1.342,   1.205e-5
1.343,   1.206e-5
1.344,   1.215e-5
1.345,   1.219e-5
1.346,   1.220e-5
1.347,   1.227e-5
1.348,   1.236e-5
1.349,   1.240e-5
1.350,   1.249e-5
1.351,   1.254e-5
1.352,   1.260e-5
1.353,   1.268e-5
1.354,   1.274e-5
1.355,   1.282e-5
1.356,   1.290e-5
1.357,   1.296e-5
1.358,   1.304e-5
1.359,   1.311e-5
1.360,   1.321e-5
1.361,   1.330e-5
1.362,   1.338e-5
1.363,   1.345e-5
1.364,   1.357e-5
1.365,   1.365e-5
1.366,   1.373e-5
1.367,   1.383e-5
1.368,   1.394e-5
1.369,   1.407e-5
1.370,   1.416e-5
1.371,   1.428e-5
1.372,   1.443e-5
1.373,   1.456e-5
1.374,   1.467e-5
1.375,   1.483e-5
1.376,   1.497e-5
1.377,   1.510e-5
1.378,   1.528e-5
1.379,   1.543e-5
1.380,   1.559e-5
1.381,   1.579e-5
1.382,   1.598e-5
1.383,   1.619e-5
1.384,   1.638e-5
1.385,   1.663e-5
1.386,   1.686e-5
1.387,   1.710e-5
1.388,   1.737e-5
1.389,   1.760e-5
1.390,   1.789e-5
1.391,   1.822e-5
1.392,   1.856e-5
1.393,   1.892e-5
1.394,   1.926e-5
1.395,   1.964e-5
1.396,   2.004e-5
1.397,   2.046e-5
1.398,   2.097e-5
1.399,   2.143e-5
1.400,   2.192e-5
1.401,   2.245e-5
1.402,   2.304e-5
1.403,   2.361e-5
1.404,   2.423e-5
1.405,   2.490e-5
1.406,   2.562e-5
1.407,   2.633e-5
1.408,   2.709e-5
1.409,   2.791e-5
1.410,   2.877e-5
1.411,   2.968e-5
1.412,   3.062e-5
1.413,   3.159e-5
1.414,   3.262e-5
1.415,   3.374e-5
1.416,   3.489e-5
1.417,   3.608e-5
1.418,   3.739e-5
1.419,   3.869e-5
1.420,   4.006e-5
1.421,   4.153e-5
1.422,   4.309e-5
1.423,   4.464e-5
1.424,   4.634e-5
1.425,   4.808e-5
1.426,   4.989e-5
1.427,   5.181e-5
1.428,   5.377e-5
1.429,   5.583e-5
1.430,   5.805e-5
1.431,   6.030e-5
1.432,   6.264e-5
1.433,   6.514e-5
1.434,   6.773e-5
1.435,   7.046e-5
1.436,   7.328e-5
1.437,   7.627e-5
1.438,   7.936e-5
1.439,   8.253e-5
1.440,   8.585e-5
1.441,   8.934e-5
1.442,   9.295e-5
1.443,   9.669e-5
1.444,   1.006e-4
1.445,   1.046e-4
1.446,   1.089e-4
1.447,   1.133e-4
1.448,   1.179e-4
1.449,   1.227e-4
1.450,   1.276e-4
1.451,   1.327e-4
1.452,   1.381e-4
1.453,   1.436e-4
1.454,   1.494e-4
1.455,   1.553e-4
1.456,   1.615e-4
1.457,   1.680e-4
1.458,   1.745e-4
1.459,   1.814e-4
1.460,   1.886e-4
1.461,   1.959e-4
1.462,   2.036e-4
1.463,   2.114e-4
1.464,   2.196e-4
1.465,   2.281e-4
1.466,   2.368e-4
1.467,   2.459e-4
1.468,   2.552e-4
1.469,   2.648e-4
1.470,   2.749e-4
1.471,   2.851e-4
1.472,   2.957e-4
1.473,   3.065e-4
1.474,   3.178e-4
1.475,   3.294e-4
1.476,   3.413e-4
1.477,   3.534e-4
1.478,   3.657e-4
1.479,   3.785e-4
1.480,   3.916e-4
1.481,   4.051e-4
1.482,   4.188e-4
1.483,   4.329e-4
1.484,   4.474e-4
1.485,   4.622e-4
1.486,   4.776e-4
1.487,   4.930e-4
1.488,   5.088e-4
1.489,   5.252e-4
1.490,   5.420e-4
1.491,   5.591e-4
1.492,   5.764e-4
1.493,   5.941e-4
1.494,   6.121e-4
1.495,   6.303e-4
1.496,   6.489e-4
1.497,   6.679e-4
1.498,   6.872e-4
1.499,   7.071e-4
1.500,   7.271e-4
1.501,   7.472e-4
1.502,   7.680e-4
1.503,   7.892e-4
1.504,   8.104e-4
1.505,   8.319e-4
1.506,   8.538e-4
1.507,   8.760e-4
1.508,   8.987e-4
1.509,   9.215e-4
1.510,   9.446e-4
1.511,   9.679e-4
1.512,   9.920e-4
1.513,   1.015e-3
1.514,   1.039e-3
1.515,   1.064e-3
1.516,   1.088e-3
1.517,   1.112e-3
1.518,   1.137e-3
1.519,   1.162e-3
1.520,   1.187e-3
1.521,   1.213e-3
1.522,   1.239e-3
1.523,   1.265e-3
1.524,   1.291e-3
1.525,   1.317e-3
1.526,   1.344e-3
1.527,   1.370e-3
1.528,   1.397e-3
1.529,   1.424e-3
1.530,   1.450e-3
1.531,   1.477e-3
1.532,   1.505e-3
1.533,   1.532e-3
1.534,   1.559e-3
1.535,   1.586e-3
1.536,   1.613e-3
1.537,   1.640e-3
1.538,   1.668e-3
1.539,   1.695e-3
1.540,   1.723e-3
1.541,   1.750e-3
1.542,   1.778e-3
1.543,   1.805e-3
1.544,   1.832e-3
1.545,   1.860e-3
1.546,   1.887e-3
1.547,   1.915e-3
1.548,   1.942e-3
1.549,   1.969e-3
1.550,   1.996e-3
1.551,   2.023e-3
1.552,   2.050e-3
1.553,   2.076e-3
1.554,   2.102e-3
1.555,   2.129e-3
1.556,   2.155e-3
1.557,   2.181e-3
1.558,   2.208e-3
1.559,   2.233e-3
1.560,   2.258e-3
1.561,   2.284e-3
1.562,   2.309e-3
1.563,   2.334e-3
1.564,   2.359e-3
1.565,   2.384e-3
1.566,   2.408e-3
1.567,   2.433e-3
1.568,   2.457e-3
1.569,   2.480e-3
1.570,   2.503e-3
1.571,   2.526e-3
1.572,   2.549e-3
1.573,   2.572e-3
1.574,   2.592e-3
1.575,   2.615e-3
1.576,   2.638e-3
1.577,   2.659e-3
1.578,   2.680e-3
1.579,   2.700e-3
1.580,   2.719e-3
1.581,   2.739e-3
1.582,   2.759e-3
1.583,   2.778e-3
1.584,   2.797e-3
1.585,   2.814e-3
1.586,   2.831e-3
1.587,   2.848e-3
1.588,   2.865e-3
1.589,   2.882e-3
1.590,   2.898e-3
1.591,   2.913e-3
1.592,   2.928e-3
1.593,   2.943e-3
1.594,   2.961e-3
1.595,   2.975e-3
1.596,   2.989e-3
1.597,   3.002e-3
1.598,   3.015e-3
1.599,   3.027e-3
1.600,   3.038e-3
1.601,   3.050e-3
1.602,   3.060e-3
1.603,   3.070e-3
1.604,   3.079e-3
1.605,   3.089e-3
1.606,   3.100e-3
1.607,   3.108e-3
1.608,   3.116e-3
1.609,   3.123e-3
1.610,   3.131e-3
1.611,   3.138e-3
1.612,   3.144e-3
1.613,   3.150e-3
1.614,   3.155e-3
1.615,   3.160e-3
1.616,   3.165e-3
1.617,   3.169e-3
1.618,   3.172e-3
1.619,   3.176e-3