File: Experimental Records and Raw Data/batch1/final400/B1_BEST_400_#8_High_Quality-223mV.txt
Dec. 8, 2022   16:34:17
Linear Sweep Voltammetry
File: d:\current work\al_oer\electrochemical test data\batch 1\400\B1_BEST_400_#8_High_Quality-223mV.txt
Data Source:  Experiment
Instrument Model:  CHI660E
Header:
Note:

Init E (V) = 1.091

Final E (V) = 1.510

Scan Rate (V/s) = 0.010
Sample Interval (V) = 0.001
Quiet Time (sec) = 2
Sensitivity (A/V) = 0.001
Comp R (ohm) = 10.0

Results:

Channel 1:

Potential/V, Current/A
1.091,   6.654e-5
1.092,   6.453e-5
1.093,   5.997e-5
1.094,   5.640e-5
1.095,   5.314e-5
1.096,   4.949e-5
1.097,   4.694e-5
1.098,   4.480e-5
1.099,   4.272e-5
1.100,   4.095e-5
1.101,   3.941e-5
1.102,   3.802e-5
1.103,   3.597e-5
1.104,   3.551e-5
1.105,   3.444e-5
1.106,   3.311e-5
1.107,   3.243e-5
1.108,   3.169e-5
1.109,   3.092e-5
1.110,   3.005e-5
1.111,   2.982e-5
1.112,   2.904e-5
1.113,   2.844e-5
1.114,   2.814e-5
1.115,   2.766e-5
1.116,   2.733e-5
1.117,   2.688e-5
1.118,   2.633e-5
1.119,   2.624e-5
1.120,   2.584e-5
1.121,   2.557e-5
1.122,   2.538e-5
1.123,   2.514e-5
1.124,   2.474e-5
1.125,   2.482e-5
1.126,   2.419e-5
1.127,   2.409e-5
1.128,   2.431e-5
1.129,   2.384e-5
1.130,   2.375e-5
1.131,   2.372e-5
1.132,   2.375e-5
1.133,   2.314e-5
1.134,   2.308e-5
1.135,   2.329e-5
1.136,   2.312e-5
1.137,   2.319e-5
1.138,   2.298e-5
1.139,   2.272e-5
1.140,   2.272e-5
1.141,   2.319e-5
1.142,   2.277e-5
1.143,   2.273e-5
1.144,   2.260e-5
1.145,   2.241e-5
1.146,   2.263e-5
1.147,   2.239e-5
1.148,   2.230e-5
1.149,   2.278e-5
1.150,   2.243e-5
1.151,   2.251e-5
1.152,   2.240e-5
1.153,   2.223e-5
1.154,   2.237e-5
1.155,   2.239e-5
1.156,   2.238e-5
1.157,   2.234e-5
1.158,   2.221e-5
1.159,   2.233e-5
1.160,   2.218e-5
1.161,   2.231e-5
1.162,   2.222e-5
1.163,   2.231e-5
1.164,   2.242e-5
1.165,   2.234e-5
1.166,   2.240e-5
1.167,   2.239e-5
1.168,   2.212e-5
1.169,   2.267e-5
1.170,   2.223e-5
1.171,   2.223e-5
1.172,   2.261e-5
1.173,   2.226e-5
1.174,   2.276e-5
1.175,   2.255e-5
1.176,   2.266e-5
1.177,   2.254e-5
1.178,   2.240e-5
1.179,   2.233e-5
1.180,   2.270e-5
1.181,   2.288e-5
1.182,   2.238e-5
1.183,   2.246e-5
1.184,   2.315e-5
1.185,   2.277e-5
1.186,   2.292e-5
1.187,   2.270e-5
1.188,   2.255e-5
1.189,   2.277e-5
1.190,   2.310e-5
1.191,   2.293e-5
1.192,   2.286e-5
1.193,   2.295e-5
1.194,   2.318e-5
1.195,   2.278e-5
1.196,   2.352e-5
1.197,   2.362e-5
1.198,   2.312e-5
1.199,   2.290e-5
1.200,   2.283e-5
1.201,   2.367e-5
1.202,   2.359e-5
1.203,   2.365e-5
1.204,   2.385e-5
1.205,   2.424e-5
1.206,   2.321e-5
1.207,   2.407e-5
1.208,   2.354e-5
1.209,   2.348e-5
1.210,   2.360e-5
1.211,   2.365e-5
1.212,   2.357e-5
1.213,   2.380e-5
1.214,   2.366e-5
1.215,   2.390e-5
1.216,   2.420e-5
1.217,   2.424e-5
1.218,   2.405e-5
1.219,   2.398e-5
1.220,   2.361e-5
1.221,   2.398e-5
1.222,   2.382e-5
1.223,   2.439e-5
1.224,   2.403e-5
1.225,   2.421e-5
1.226,   2.444e-5
1.227,   2.446e-5
1.228,   2.462e-5
1.229,   2.394e-5
1.230,   2.510e-5
1.231,   2.421e-5
1.232,   2.413e-5
1.233,   2.474e-5
1.234,   2.436e-5
1.235,   2.551e-5
1.236,   2.450e-5
1.237,   2.474e-5
1.238,   2.437e-5
1.239,   2.525e-5
1.240,   2.497e-5
1.241,   2.544e-5
1.242,   2.450e-5
1.243,   2.521e-5
1.244,   2.453e-5
1.245,   2.585e-5
1.246,   2.485e-5
1.247,   2.526e-5
1.248,   2.501e-5
1.249,   2.496e-5
1.250,   2.480e-5
1.251,   2.584e-5
1.252,   2.575e-5
1.253,   2.435e-5
1.254,   2.731e-5
1.255,   2.577e-5
1.256,   2.584e-5
1.257,   2.630e-5
1.258,   2.538e-5
1.259,   2.545e-5
1.260,   2.562e-5
1.261,   2.582e-5
1.262,   2.625e-5
1.263,   2.583e-5
1.264,   2.596e-5
1.265,   2.636e-5
1.266,   2.595e-5
1.267,   2.569e-5
1.268,   2.688e-5
1.269,   2.533e-5
1.270,   2.598e-5
1.271,   2.729e-5
1.272,   2.529e-5
1.273,   2.651e-5
1.274,   2.679e-5
1.275,   2.611e-5
1.276,   2.736e-5
1.277,   2.585e-5
1.278,   2.644e-5
1.279,   2.700e-5
1.280,   2.620e-5
1.281,   2.746e-5
1.282,   2.610e-5
1.283,   2.697e-5
1.284,   2.869e-5
1.285,   2.603e-5
1.286,   2.627e-5
1.287,   2.633e-5
1.288,   2.744e-5
1.289,   2.725e-5
1.290,   2.748e-5
1.291,   2.734e-5
1.292,   2.634e-5
1.293,   2.784e-5
1.294,   2.749e-5
1.295,   2.751e-5
1.296,   2.718e-5
1.297,   2.754e-5
1.298,   2.801e-5
1.299,   2.587e-5
1.300,   2.972e-5
1.301,   2.805e-5
1.302,   2.709e-5
1.303,   2.764e-5
1.304,   2.711e-5
1.305,   3.039e-5
1.306,   2.662e-5
1.307,   2.897e-5
1.308,   2.735e-5
1.309,   2.808e-5
1.310,   2.836e-5
1.311,   2.800e-5
1.312,   2.822e-5
1.313,   2.866e-5
1.314,   2.800e-5
1.315,   2.906e-5
1.316,   2.869e-5
1.317,   2.899e-5
1.318,   2.882e-5
1.319,   2.888e-5
1.320,   2.909e-5
1.321,   2.933e-5
1.322,   2.897e-5
1.323,   3.003e-5
1.324,   2.712e-5
1.325,   3.488e-5
1.326,   2.746e-5
1.327,   2.794e-5
1.328,   2.957e-5
1.329,   3.343e-5
1.330,   2.717e-5
1.331,   2.878e-5
1.332,   3.548e-5
1.333,   2.005e-5
1.334,   3.517e-5
1.335,   2.969e-5
1.336,   3.075e-5
1.337,   3.107e-5
1.338,   3.162e-5
1.339,   3.074e-5
1.340,   3.105e-5
1.341,   3.144e-5
1.342,   2.969e-5
1.343,   3.458e-5
1.344,   3.031e-5
1.345,   3.065e-5
1.346,   3.232e-5
1.347,   3.022e-5
1.348,   3.233e-5
1.349,   3.506e-5
1.350,   3.075e-5
1.351,   3.327e-5
1.352,   3.208e-5
1.353,   3.371e-5
1.354,   4.473e-5
1.355,   2.558e-5
1.356,   3.406e-5
1.357,   3.994e-5
1.358,   2.834e-5
1.359,   3.271e-5
1.360,   3.498e-5
1.361,   3.947e-5
1.362,   3.099e-5
1.363,   4.135e-5
1.364,   3.012e-5
1.365,   4.355e-5
1.366,   4.568e-5
1.367,   3.661e-5
1.368,   3.904e-5
1.369,   4.028e-5
1.370,   4.061e-5
1.371,   4.071e-5
1.372,   4.429e-5
1.373,   4.365e-5
1.374,   4.342e-5
1.375,   4.717e-5
1.376,   4.646e-5
1.377,   4.869e-5
1.378,   5.027e-5
1.379,   5.926e-5
1.380,   4.822e-5
1.381,   5.066e-5
1.382,   5.859e-5
1.383,   5.879e-5
1.384,   6.494e-5
1.385,   8.488e-5
1.386,   9.506e-5
1.387,   7.214e-5
1.388,   7.498e-5
1.389,   8.218e-5
1.390,   7.830e-5
1.391,   8.752e-5
1.392,   8.810e-5
1.393,   9.285e-5
1.394,   9.287e-5
1.395,   7.611e-5
1.396,   1.192e-4
1.397,   9.730e-5
1.398,   1.241e-4
1.399,   1.234e-4
1.400,   1.606e-4
1.401,   1.139e-4
1.402,   1.342e-4
1.403,   1.410e-4
1.404,   2.073e-4
1.405,   1.547e-4
1.406,   1.635e-4
1.407,   1.628e-4
1.408,   1.926e-4
1.409,   2.228e-4
1.410,   2.043e-4
1.411,   2.070e-4
1.412,   2.186e-4
1.413,   2.381e-4
1.414,   2.619e-4
1.415,   3.147e-4
1.416,   3.108e-4
1.417,   3.537e-4
1.418,   3.502e-4
1.419,   3.828e-4
1.420,   3.719e-4
1.421,   3.467e-4
1.422,   3.747e-4
1.423,   4.198e-4
1.424,   4.923e-4
1.425,   4.619e-4
1.426,   5.536e-4
1.427,   5.962e-4
1.428,   5.692e-4
1.429,   5.119e-4
1.430,   5.570e-4
1.431,   6.762e-4
1.432,   6.460e-4
1.433,   7.795e-4
1.434,   7.690e-4
1.435,   7.815e-4
1.436,   8.797e-4
1.437,   9.087e-4
1.438,   8.506e-4
1.439,   1.069e-3
1.440,   1.027e-3
1.441,   1.116e-3
1.442,   1.152e-3
1.443,   1.197e-3
1.444,   1.200e-3
1.445,   1.159e-3
1.446,   1.271e-3
1.447,   1.378e-3
1.448,   1.510e-3
1.449,   1.527e-3
1.450,   1.567e-3
1.451,   1.786e-3
1.452,   1.857e-3
1.453,   1.894e-3
1.454,   1.984e-3
1.455,   2.067e-3
1.456,   2.031e-3
1.457,   1.985e-3
1.458,   2.377e-3
1.459,   2.282e-3
1.460,   2.337e-3
1.461,   2.077e-3
1.462,   2.271e-3
1.463,   2.618e-3
1.464,   2.819e-3
1.465,   2.876e-3
1.466,   3.155e-3
1.467,   3.817e-3
1.468,   3.450e-3
1.469,   3.780e-3
1.470,   3.934e-3
1.471,   3.744e-3
1.472,   3.574e-3
1.473,   3.960e-3
1.474,   4.043e-3
1.475,   3.375e-3
1.476,   3.703e-3
1.477,   4.674e-3
1.478,   4.564e-3
1.479,   4.348e-3
1.480,   4.890e-3
1.481,   4.647e-3
1.482,   4.873e-3
1.483,   5.264e-3
1.484,   5.347e-3
1.485,   4.336e-3
1.486,   5.415e-3
1.487,   5.817e-3
1.488,   5.822e-3
1.489,   5.595e-3
1.490,   5.557e-3
1.491,   6.038e-3
1.492,   7.467e-3
1.493,   6.665e-3
1.494,   5.856e-3
1.495,   6.252e-3
1.496,   6.327e-3
1.497,   5.909e-3
1.498,   5.739e-3
1.499,   5.622e-3
1.500,   6.286e-3
1.501,   7.416e-3
1.502,   8.533e-3
1.503,   8.600e-3
1.504,   7.954e-3
1.505,   8.185e-3
1.506,   7.483e-3
1.507,   7.236e-3
1.508,   8.265e-3
1.509,   8.544e-3
1.510,   7.547e-3