File: Experimental Records and Raw Data/batch1/final400/B1_BEST_400_#9_Full-206mV.txt
Dec. 8, 2022   16:53:49
Linear Sweep Voltammetry
File: d:\current work\al_oer\electrochemical test data\batch 1\400\B1_BEST_400_#9_Full-206mV.txt
Data Source:  Experiment
Instrument Model:  CHI660E
Header:
Note:

Init E (V) = 1.091

Final E (V) = 1.475

Scan Rate (V/s) = 0.010
Sample Interval (V) = 0.001
Quiet Time (sec) = 2
Sensitivity (A/V) = 0.001
Comp R (ohm) = 5.9

Results:

Channel 1:

Potential/V, Current/A
1.091,   5.127e-5
1.092,   5.851e-5
1.093,   5.700e-5
1.094,   5.466e-5
1.095,   5.279e-5
1.096,   5.099e-5
1.097,   4.937e-5
1.098,   4.817e-5
1.099,   4.695e-5
1.100,   4.579e-5
1.101,   4.492e-5
1.102,   4.391e-5
1.103,   4.318e-5
1.104,   4.244e-5
1.105,   4.178e-5
1.106,   4.129e-5
1.107,   4.064e-5
1.108,   4.018e-5
1.109,   3.985e-5
1.110,   3.931e-5
1.111,   3.909e-5
1.112,   3.882e-5
1.113,   3.825e-5
1.114,   3.808e-5
1.115,   3.777e-5
1.116,   3.760e-5
1.117,   3.743e-5
1.118,   3.718e-5
1.119,   3.705e-5
1.120,   3.681e-5
1.121,   3.664e-5
1.122,   3.654e-5
1.123,   3.627e-5
1.124,   3.628e-5
1.125,   3.623e-5
1.126,   3.594e-5
1.127,   3.594e-5
1.128,   3.586e-5
1.129,   3.575e-5
1.130,   3.571e-5
1.131,   3.559e-5
1.132,   3.554e-5
1.133,   3.550e-5
1.134,   3.539e-5
1.135,   3.549e-5
1.136,   3.536e-5
1.137,   3.532e-5
1.138,   3.541e-5
1.139,   3.526e-5
1.140,   3.530e-5
1.141,   3.530e-5
1.142,   3.524e-5
1.143,   3.527e-5
1.144,   3.524e-5
1.145,   3.524e-5
1.146,   3.538e-5
1.147,   3.523e-5
1.148,   3.529e-5
1.149,   3.539e-5
1.150,   3.541e-5
1.151,   3.545e-5
1.152,   3.545e-5
1.153,   3.539e-5
1.154,   3.551e-5
1.155,   3.540e-5
1.156,   3.555e-5
1.157,   3.565e-5
1.158,   3.547e-5
1.159,   3.569e-5
1.160,   3.568e-5
1.161,   3.565e-5
1.162,   3.575e-5
1.163,   3.580e-5
1.164,   3.587e-5
1.165,   3.596e-5
1.166,   3.587e-5
1.167,   3.600e-5
1.168,   3.607e-5
1.169,   3.608e-5
1.170,   3.618e-5
1.171,   3.615e-5
1.172,   3.627e-5
1.173,   3.636e-5
1.174,   3.627e-5
1.175,   3.648e-5
1.176,   3.655e-5
1.177,   3.645e-5
1.178,   3.668e-5
1.179,   3.664e-5
1.180,   3.665e-5
1.181,   3.679e-5
1.182,   3.683e-5
1.183,   3.693e-5
1.184,   3.692e-5
1.185,   3.697e-5
1.186,   3.709e-5
1.187,   3.706e-5
1.188,   3.718e-5
1.189,   3.732e-5
1.190,   3.728e-5
1.191,   3.735e-5
1.192,   3.743e-5
1.193,   3.738e-5
1.194,   3.763e-5
1.195,   3.750e-5
1.196,   3.760e-5
1.197,   3.769e-5
1.198,   3.766e-5
1.199,   3.779e-5
1.200,   3.777e-5
1.201,   3.797e-5
1.202,   3.810e-5
1.203,   3.796e-5
1.204,   3.801e-5
1.205,   3.815e-5
1.206,   3.808e-5
1.207,   3.831e-5
1.208,   3.830e-5
1.209,   3.828e-5
1.210,   3.846e-5
1.211,   3.839e-5
1.212,   3.848e-5
1.213,   3.864e-5
1.214,   3.860e-5
1.215,   3.870e-5
1.216,   3.871e-5
1.217,   3.879e-5
1.218,   3.897e-5
1.219,   3.882e-5
1.220,   3.897e-5
1.221,   3.913e-5
1.222,   3.898e-5
1.223,   3.923e-5
1.224,   3.921e-5
1.225,   3.920e-5
1.226,   3.938e-5
1.227,   3.937e-5
1.228,   3.940e-5
1.229,   3.954e-5
1.230,   3.947e-5
1.231,   3.956e-5
1.232,   3.960e-5
1.233,   3.969e-5
1.234,   3.978e-5
1.235,   3.971e-5
1.236,   3.986e-5
1.237,   3.990e-5
1.238,   3.982e-5
1.239,   4.002e-5
1.240,   4.004e-5
1.241,   4.002e-5
1.242,   4.013e-5
1.243,   4.013e-5
1.244,   4.016e-5
1.245,   4.027e-5
1.246,   4.026e-5
1.247,   4.031e-5
1.248,   4.033e-5
1.249,   4.035e-5
1.250,   4.051e-5
1.251,   4.039e-5
1.252,   4.064e-5
1.253,   4.068e-5
1.254,   4.048e-5
1.255,   4.072e-5
1.256,   4.070e-5
1.257,   4.083e-5
1.258,   4.092e-5
1.259,   4.088e-5
1.260,   4.089e-5
1.261,   4.100e-5
1.262,   4.098e-5
1.263,   4.107e-5
1.264,   4.107e-5
1.265,   4.124e-5
1.266,   4.132e-5
1.267,   4.118e-5
1.268,   4.133e-5
1.269,   4.142e-5
1.270,   4.130e-5
1.271,   4.156e-5
1.272,   4.157e-5
1.273,   4.150e-5
1.274,   4.169e-5
1.275,   4.164e-5
1.276,   4.170e-5
1.277,   4.184e-5
1.278,   4.182e-5
1.279,   4.190e-5
1.280,   4.187e-5
1.281,   4.192e-5
1.282,   4.213e-5
1.283,   4.207e-5
1.284,   4.216e-5
1.285,   4.229e-5
1.286,   4.218e-5
1.287,   4.232e-5
1.288,   4.239e-5
1.289,   4.234e-5
1.290,   4.257e-5
1.291,   4.259e-5
1.292,   4.264e-5
1.293,   4.277e-5
1.294,   4.268e-5
1.295,   4.286e-5
1.296,   4.285e-5
1.297,   4.294e-5
1.298,   4.312e-5
1.299,   4.298e-5
1.300,   4.313e-5
1.301,   4.328e-5
1.302,   4.320e-5
1.303,   4.341e-5
1.304,   4.351e-5
1.305,   4.346e-5
1.306,   4.370e-5
1.307,   4.362e-5
1.308,   4.369e-5
1.309,   4.387e-5
1.310,   4.392e-5
1.311,   4.409e-5
1.312,   4.409e-5
1.313,   4.423e-5
1.314,   4.441e-5
1.315,   4.434e-5
1.316,   4.472e-5
1.317,   4.488e-5
1.318,   4.467e-5
1.319,   4.488e-5
1.320,   4.499e-5
1.321,   4.503e-5
1.322,   4.528e-5
1.323,   4.531e-5
1.324,   4.541e-5
1.325,   4.567e-5
1.326,   4.563e-5
1.327,   4.591e-5
1.328,   4.593e-5
1.329,   4.616e-5
1.330,   4.645e-5
1.331,   4.639e-5
1.332,   4.665e-5
1.333,   4.690e-5
1.334,   4.685e-5
1.335,   4.721e-5
1.336,   4.742e-5
1.337,   4.749e-5
1.338,   4.783e-5
1.339,   4.788e-5
1.340,   4.819e-5
1.341,   4.849e-5
1.342,   4.867e-5
1.343,   4.899e-5
1.344,   4.914e-5
1.345,   4.949e-5
1.346,   4.989e-5
1.347,   5.002e-5
1.348,   5.045e-5
1.349,   5.087e-5
1.350,   5.109e-5
1.351,   5.157e-5
1.352,   5.193e-5
1.353,   5.233e-5
1.354,   5.298e-5
1.355,   5.349e-5
1.356,   5.395e-5
1.357,   5.456e-5
1.358,   5.498e-5
1.359,   5.575e-5
1.360,   5.631e-5
1.361,   5.714e-5
1.362,   5.806e-5
1.363,   5.873e-5
1.364,   5.972e-5
1.365,   6.079e-5
1.366,   6.169e-5
1.367,   6.303e-5
1.368,   6.427e-5
1.369,   6.542e-5
1.370,   6.702e-5
1.371,   6.839e-5
1.372,   7.009e-5
1.373,   7.194e-5
1.374,   7.380e-5
1.375,   7.593e-5
1.376,   7.819e-5
1.377,   8.065e-5
1.378,   8.338e-5
1.379,   8.599e-5
1.380,   8.915e-5
1.381,   9.261e-5
1.382,   9.579e-5
1.383,   9.985e-5
1.384,   1.040e-4
1.385,   1.082e-4
1.386,   1.133e-4
1.387,   1.183e-4
1.388,   1.238e-4
1.389,   1.299e-4
1.390,   1.362e-4
1.391,   1.433e-4
1.392,   1.508e-4
1.393,   1.590e-4
1.394,   1.677e-4
1.395,   1.768e-4
1.396,   1.868e-4
1.397,   1.974e-4
1.398,   2.086e-4
1.399,   2.210e-4
1.400,   2.341e-4
1.401,   2.480e-4
1.402,   2.632e-4
1.403,   2.789e-4
1.404,   2.959e-4
1.405,   3.143e-4
1.406,   3.336e-4
1.407,   3.541e-4
1.408,   3.758e-4
1.409,   3.991e-4
1.410,   4.238e-4
1.411,   4.496e-4
1.412,   4.775e-4
1.413,   5.069e-4
1.414,   5.376e-4
1.415,   5.707e-4
1.416,   6.054e-4
1.417,   6.420e-4
1.418,   6.807e-4
1.419,   7.216e-4
1.420,   7.649e-4
1.421,   8.105e-4
1.422,   8.581e-4
1.423,   9.089e-4
1.424,   9.620e-4
1.425,   1.018e-3
1.426,   1.077e-3
1.427,   1.139e-3
1.428,   1.204e-3
1.429,   1.273e-3
1.430,   1.345e-3
1.431,   1.420e-3
1.432,   1.500e-3
1.433,   1.584e-3
1.434,   1.672e-3
1.435,   1.763e-3
1.436,   1.860e-3
1.437,   1.960e-3
1.438,   2.067e-3
1.439,   2.178e-3
1.440,   2.295e-3
1.441,   2.417e-3
1.442,   2.544e-3
1.443,   2.678e-3
1.444,   2.818e-3
1.445,   2.965e-3
1.446,   3.118e-3
1.447,   3.278e-3
1.448,   3.443e-3
1.449,   3.617e-3
1.450,   3.800e-3
1.451,   3.989e-3
1.452,   4.187e-3
1.453,   4.393e-3
1.454,   4.604e-3
1.455,   4.824e-3
1.456,   5.054e-3
1.457,   5.291e-3
1.458,   5.537e-3
1.459,   5.788e-3
1.460,   6.053e-3
1.461,   6.314e-3
1.462,   6.593e-3
1.463,   6.870e-3
1.464,   7.151e-3
1.465,   7.437e-3
1.466,   7.721e-3
1.467,   8.013e-3
1.468,   8.311e-3
1.469,   8.615e-3
1.470,   8.930e-3
1.471,   9.242e-3
1.472,   9.559e-3
1.473,   9.885e-3
1.474,   1.006e-2
1.475,   1.006e-2