File: Experimental Records and Raw Data/batch1/final400/B1_VARIANCE_400_#5_Full-342mV.txt
Dec. 6, 2022   16:34:31
Linear Sweep Voltammetry
File: d:\current work\al_oer\electrochemical test data\batch 1\400\B1_VARIANCE_400_#5_Full-342mV.txt
Data Source:  Experiment
Instrument Model:  CHI660E
Header:
Note:

Init E (V) = 1.096

Final E (V) = 1.633

Scan Rate (V/s) = 0.010
Sample Interval (V) = 0.001
Quiet Time (sec) = 2
Sensitivity (A/V) = 0.001
Comp R (ohm) = 4.6

Results:

Channel 1:
Ep = 1.412V
ip = 2.249e-3A
Ah = 3.501e-2C

Potential/V, Current/A
1.096,   2.284e-5
1.097,   2.107e-5
1.098,   1.922e-5
1.099,   1.835e-5
1.100,   1.778e-5
1.101,   1.654e-5
1.102,   1.621e-5
1.103,   1.561e-5
1.104,   1.417e-5
1.105,   1.308e-5
1.106,   1.271e-5
1.107,   1.213e-5
1.108,   1.163e-5
1.109,   1.124e-5
1.110,   1.090e-5
1.111,   1.062e-5
1.112,   1.028e-5
1.113,   1.004e-5
1.114,   9.797e-6
1.115,   9.566e-6
1.116,   9.369e-6
1.117,   9.178e-6
1.118,   8.971e-6
1.119,   8.784e-6
1.120,   8.591e-6
1.121,   8.613e-6
1.122,   8.406e-6
1.123,   8.198e-6
1.124,   8.054e-6
1.125,   7.904e-6
1.126,   7.822e-6
1.127,   7.681e-6
1.128,   7.619e-6
1.129,   7.509e-6
1.130,   7.391e-6
1.131,   7.315e-6
1.132,   7.223e-6
1.133,   7.165e-6
1.134,   7.126e-6
1.135,   7.019e-6
1.136,   6.974e-6
1.137,   6.914e-6
1.138,   6.858e-6
1.139,   6.739e-6
1.140,   6.713e-6
1.141,   6.676e-6
1.142,   6.574e-6
1.143,   6.551e-6
1.144,   6.538e-6
1.145,   6.479e-6
1.146,   6.407e-6
1.147,   6.406e-6
1.148,   6.329e-6
1.149,   6.310e-6
1.150,   6.257e-6
1.151,   6.207e-6
1.152,   6.209e-6
1.153,   6.183e-6
1.154,   6.148e-6
1.155,   6.117e-6
1.156,   6.097e-6
1.157,   6.057e-6
1.158,   6.009e-6
1.159,   5.995e-6
1.160,   6.012e-6
1.161,   5.985e-6
1.162,   5.982e-6
1.163,   5.987e-6
1.164,   5.927e-6
1.165,   5.944e-6
1.166,   5.935e-6
1.167,   5.953e-6
1.168,   5.912e-6
1.169,   5.911e-6
1.170,   5.881e-6
1.171,   5.818e-6
1.172,   5.819e-6
1.173,   5.839e-6
1.174,   5.842e-6
1.175,   5.805e-6
1.176,   5.837e-6
1.177,   5.840e-6
1.178,   5.839e-6
1.179,   5.821e-6
1.180,   5.843e-6
1.181,   5.843e-6
1.182,   5.821e-6
1.183,   5.860e-6
1.184,   5.838e-6
1.185,   5.864e-6
1.186,   5.875e-6
1.187,   5.846e-6
1.188,   5.802e-6
1.189,   5.787e-6
1.190,   5.827e-6
1.191,   5.826e-6
1.192,   5.820e-6
1.193,   5.837e-6
1.194,   5.833e-6
1.195,   5.858e-6
1.196,   5.840e-6
1.197,   5.849e-6
1.198,   5.841e-6
1.199,   5.882e-6
1.200,   5.849e-6
1.201,   5.868e-6
1.202,   5.906e-6
1.203,   5.901e-6
1.204,   5.904e-6
1.205,   5.875e-6
1.206,   5.896e-6
1.207,   5.931e-6
1.208,   5.893e-6
1.209,   5.916e-6
1.210,   5.954e-6
1.211,   5.932e-6
1.212,   5.957e-6
1.213,   5.949e-6
1.214,   5.992e-6
1.215,   6.026e-6
1.216,   5.992e-6
1.217,   6.001e-6
1.218,   6.026e-6
1.219,   6.071e-6
1.220,   6.077e-6
1.221,   6.065e-6
1.222,   6.060e-6
1.223,   6.101e-6
1.224,   6.132e-6
1.225,   6.169e-6
1.226,   6.187e-6
1.227,   6.168e-6
1.228,   6.167e-6
1.229,   6.204e-6
1.230,   6.220e-6
1.231,   6.261e-6
1.232,   6.234e-6
1.233,   6.267e-6
1.234,   6.277e-6
1.235,   6.286e-6
1.236,   6.284e-6
1.237,   6.300e-6
1.238,   6.338e-6
1.239,   6.340e-6
1.240,   6.385e-6
1.241,   6.431e-6
1.242,   6.420e-6
1.243,   6.409e-6
1.244,   6.459e-6
1.245,   6.460e-6
1.246,   6.487e-6
1.247,   6.479e-6
1.248,   6.527e-6
1.249,   6.560e-6
1.250,   6.547e-6
1.251,   6.553e-6
1.252,   6.574e-6
1.253,   6.583e-6
1.254,   6.621e-6
1.255,   6.672e-6
1.256,   6.691e-6
1.257,   6.718e-6
1.258,   6.750e-6
1.259,   6.761e-6
1.260,   6.803e-6
1.261,   6.812e-6
1.262,   6.838e-6
1.263,   6.872e-6
1.264,   6.871e-6
1.265,   6.898e-6
1.266,   6.962e-6
1.267,   6.965e-6
1.268,   6.974e-6
1.269,   7.008e-6
1.270,   7.035e-6
1.271,   7.046e-6
1.272,   7.059e-6
1.273,   7.105e-6
1.274,   7.105e-6
1.275,   7.142e-6
1.276,   7.194e-6
1.277,   7.202e-6
1.278,   7.182e-6
1.279,   7.187e-6
1.280,   7.265e-6
1.281,   7.280e-6
1.282,   7.313e-6
1.283,   7.317e-6
1.284,   7.314e-6
1.285,   7.384e-6
1.286,   7.400e-6
1.287,   7.448e-6
1.288,   7.451e-6
1.289,   7.449e-6
1.290,   7.529e-6
1.291,   7.549e-6
1.292,   7.565e-6
1.293,   7.571e-6
1.294,   7.572e-6
1.295,   7.666e-6
1.296,   7.670e-6
1.297,   7.711e-6
1.298,   7.728e-6
1.299,   7.750e-6
1.300,   7.802e-6
1.301,   7.813e-6
1.302,   7.828e-6
1.303,   7.903e-6
1.304,   7.927e-6
1.305,   7.930e-6
1.306,   7.991e-6
1.307,   8.004e-6
1.308,   8.050e-6
1.309,   8.102e-6
1.310,   8.106e-6
1.311,   8.161e-6
1.312,   8.180e-6
1.313,   8.228e-6
1.314,   8.291e-6
1.315,   8.279e-6
1.316,   8.326e-6
1.317,   8.340e-6
1.318,   8.413e-6
1.319,   8.447e-6
1.320,   8.483e-6
1.321,   8.541e-6
1.322,   8.585e-6
1.323,   8.569e-6
1.324,   8.606e-6
1.325,   8.621e-6
1.326,   8.704e-6
1.327,   8.747e-6
1.328,   8.750e-6
1.329,   8.790e-6
1.330,   8.852e-6
1.331,   8.861e-6
1.332,   8.947e-6
1.333,   8.972e-6
1.334,   9.005e-6
1.335,   9.065e-6
1.336,   9.073e-6
1.337,   9.134e-6
1.338,   9.194e-6
1.339,   9.202e-6
1.340,   9.236e-6
1.341,   9.323e-6
1.342,   9.357e-6
1.343,   9.357e-6
1.344,   9.407e-6
1.345,   9.478e-6
1.346,   9.495e-6
1.347,   9.542e-6
1.348,   9.601e-6
1.349,   9.636e-6
1.350,   9.638e-6
1.351,   9.736e-6
1.352,   9.751e-6
1.353,   9.807e-6
1.354,   9.851e-6
1.355,   9.914e-6
1.356,   9.988e-6
1.357,   1.005e-5
1.358,   1.008e-5
1.359,   1.012e-5
1.360,   1.022e-5
1.361,   1.022e-5
1.362,   1.029e-5
1.363,   1.033e-5
1.364,   1.042e-5
1.365,   1.041e-5
1.366,   1.052e-5
1.367,   1.058e-5
1.368,   1.064e-5
1.369,   1.074e-5
1.370,   1.081e-5
1.371,   1.083e-5
1.372,   1.093e-5
1.373,   1.103e-5
1.374,   1.115e-5
1.375,   1.121e-5
1.376,   1.127e-5
1.377,   1.136e-5
1.378,   1.141e-5
1.379,   1.151e-5
1.380,   1.160e-5
1.381,   1.172e-5
1.382,   1.179e-5
1.383,   1.194e-5
1.384,   1.204e-5
1.385,   1.216e-5
1.386,   1.229e-5
1.387,   1.240e-5
1.388,   1.254e-5
1.389,   1.271e-5
1.390,   1.286e-5
1.391,   1.300e-5
1.392,   1.320e-5
1.393,   1.337e-5
1.394,   1.353e-5
1.395,   1.373e-5
1.396,   1.394e-5
1.397,   1.417e-5
1.398,   1.441e-5
1.399,   1.466e-5
1.400,   1.491e-5
1.401,   1.520e-5
1.402,   1.548e-5
1.403,   1.577e-5
1.404,   1.618e-5
1.405,   1.653e-5
1.406,   1.688e-5
1.407,   1.724e-5
1.408,   1.765e-5
1.409,   1.807e-5
1.410,   1.858e-5
1.411,   1.905e-5
1.412,   1.957e-5
1.413,   2.007e-5
1.414,   2.072e-5
1.415,   2.134e-5
1.416,   2.197e-5
1.417,   2.262e-5
1.418,   2.336e-5
1.419,   2.408e-5
1.420,   2.484e-5
1.421,   2.571e-5
1.422,   2.661e-5
1.423,   2.751e-5
1.424,   2.852e-5
1.425,   2.955e-5
1.426,   3.058e-5
1.427,   3.171e-5
1.428,   3.286e-5
1.429,   3.407e-5
1.430,   3.540e-5
1.431,   3.678e-5
1.432,   3.815e-5
1.433,   3.967e-5
1.434,   4.126e-5
1.435,   4.286e-5
1.436,   4.456e-5
1.437,   4.634e-5
1.438,   4.824e-5
1.439,   5.015e-5
1.440,   5.230e-5
1.441,   5.440e-5
1.442,   5.667e-5
1.443,   5.893e-5
1.444,   6.137e-5
1.445,   6.390e-5
1.446,   6.654e-5
1.447,   6.930e-5
1.448,   7.217e-5
1.449,   7.524e-5
1.450,   7.842e-5
1.451,   8.162e-5
1.452,   8.505e-5
1.453,   8.859e-5
1.454,   9.227e-5
1.455,   9.602e-5
1.456,   1.000e-4
1.457,   1.042e-4
1.458,   1.084e-4
1.459,   1.129e-4
1.460,   1.178e-4
1.461,   1.226e-4
1.462,   1.276e-4
1.463,   1.328e-4
1.464,   1.381e-4
1.465,   1.437e-4
1.466,   1.495e-4
1.467,   1.555e-4
1.468,   1.617e-4
1.469,   1.681e-4
1.470,   1.748e-4
1.471,   1.817e-4
1.472,   1.888e-4
1.473,   1.962e-4
1.474,   2.038e-4
1.475,   2.116e-4
1.476,   2.197e-4
1.477,   2.282e-4
1.478,   2.378e-4
1.479,   2.468e-4
1.480,   2.559e-4
1.481,   2.655e-4
1.482,   2.754e-4
1.483,   2.858e-4
1.484,   2.964e-4
1.485,   3.070e-4
1.486,   3.181e-4
1.487,   3.295e-4
1.488,   3.413e-4
1.489,   3.536e-4
1.490,   3.662e-4
1.491,   3.791e-4
1.492,   3.924e-4
1.493,   4.057e-4
1.494,   4.194e-4
1.495,   4.341e-4
1.496,   4.480e-4
1.497,   4.625e-4
1.498,   4.775e-4
1.499,   4.929e-4
1.500,   5.090e-4
1.501,   5.254e-4
1.502,   5.419e-4
1.503,   5.588e-4
1.504,   5.762e-4
1.505,   5.938e-4
1.506,   6.113e-4
1.507,   6.294e-4
1.508,   6.478e-4
1.509,   6.658e-4
1.510,   6.846e-4
1.511,   7.042e-4
1.512,   7.236e-4
1.513,   7.434e-4
1.514,   7.636e-4
1.515,   7.839e-4
1.516,   8.050e-4
1.517,   8.255e-4
1.518,   8.463e-4
1.519,   8.674e-4
1.520,   8.890e-4
1.521,   9.105e-4
1.522,   9.316e-4
1.523,   9.529e-4
1.524,   9.748e-4
1.525,   9.958e-4
1.526,   1.018e-3
1.527,   1.040e-3
1.528,   1.062e-3
1.529,   1.083e-3
1.530,   1.104e-3
1.531,   1.125e-3
1.532,   1.146e-3
1.533,   1.167e-3
1.534,   1.188e-3
1.535,   1.210e-3
1.536,   1.231e-3
1.537,   1.251e-3
1.538,   1.273e-3
1.539,   1.296e-3
1.540,   1.317e-3
1.541,   1.337e-3
1.542,   1.358e-3
1.543,   1.380e-3
1.544,   1.400e-3
1.545,   1.421e-3
1.546,   1.442e-3
1.547,   1.463e-3
1.548,   1.482e-3
1.549,   1.502e-3
1.550,   1.523e-3
1.551,   1.544e-3
1.552,   1.566e-3
1.553,   1.586e-3
1.554,   1.606e-3
1.555,   1.626e-3
1.556,   1.646e-3
1.557,   1.666e-3
1.558,   1.686e-3
1.559,   1.706e-3
1.560,   1.725e-3
1.561,   1.745e-3
1.562,   1.764e-3
1.563,   1.783e-3
1.564,   1.803e-3
1.565,   1.822e-3
1.566,   1.839e-3
1.567,   1.857e-3
1.568,   1.875e-3
1.569,   1.892e-3
1.570,   1.909e-3
1.571,   1.929e-3
1.572,   1.947e-3
1.573,   1.964e-3
1.574,   1.980e-3
1.575,   1.995e-3
1.576,   2.011e-3
1.577,   2.026e-3
1.578,   2.040e-3
1.579,   2.056e-3
1.580,   2.069e-3
1.581,   2.084e-3
1.582,   2.096e-3
1.583,   2.110e-3
1.584,   2.121e-3
1.585,   2.133e-3
1.586,   2.144e-3
1.587,   2.155e-3
1.588,   2.166e-3
1.589,   2.177e-3
1.590,   2.187e-3
1.591,   2.201e-3
1.592,   2.208e-3
1.593,   2.216e-3
1.594,   2.224e-3
1.595,   2.231e-3
1.596,   2.238e-3
1.597,   2.243e-3
1.598,   2.249e-3
1.599,   2.253e-3
1.600,   2.258e-3
1.601,   2.262e-3
1.602,   2.265e-3
1.603,   2.268e-3
1.604,   2.270e-3
1.605,   2.272e-3
1.606,   2.273e-3
1.607,   2.273e-3
1.608,   2.273e-3
1.609,   2.272e-3
1.610,   2.272e-3
1.611,   2.270e-3
1.612,   2.267e-3
1.613,   2.265e-3
1.614,   2.262e-3
1.615,   2.259e-3
1.616,   2.256e-3
1.617,   2.250e-3
1.618,   2.246e-3
1.619,   2.240e-3
1.620,   2.234e-3
1.621,   2.230e-3
1.622,   2.225e-3
1.623,   2.219e-3
1.624,   2.210e-3
1.625,   2.202e-3
1.626,   2.195e-3
1.627,   2.186e-3
1.628,   2.178e-3
1.629,   2.169e-3
1.630,   2.160e-3
1.631,   2.151e-3
1.632,   2.141e-3
1.633,   2.131e-3