File: Experimental Records and Raw Data/batch1/final400/B1_VARIANCE_400_#4_Full-323mV.txt
Dec. 6, 2022   17:17:04
Linear Sweep Voltammetry
File: d:\current work\al_oer\electrochemical test data\batch 1\400\B1_VARIANCE_400_#4_Full-323mV.txt
Data Source:  Experiment
Instrument Model:  CHI660E
Header:
Note:

Init E (V) = 1.091

Final E (V) = 1.612

Scan Rate (V/s) = 0.010
Sample Interval (V) = 0.001
Quiet Time (sec) = 2
Sensitivity (A/V) = 0.001
Comp R (ohm) = 4.8

Results:

Channel 1:

Potential/V, Current/A
1.091,   4.420e-5
1.092,   4.193e-5
1.093,   3.943e-5
1.094,   3.717e-5
1.095,   3.511e-5
1.096,   3.323e-5
1.097,   3.156e-5
1.098,   2.996e-5
1.099,   2.868e-5
1.100,   2.743e-5
1.101,   2.631e-5
1.102,   2.537e-5
1.103,   2.444e-5
1.104,   2.362e-5
1.105,   2.285e-5
1.106,   2.214e-5
1.107,   2.148e-5
1.108,   2.092e-5
1.109,   2.039e-5
1.110,   1.988e-5
1.111,   1.942e-5
1.112,   1.893e-5
1.113,   1.851e-5
1.114,   1.811e-5
1.115,   1.772e-5
1.116,   1.741e-5
1.117,   1.708e-5
1.118,   1.675e-5
1.119,   1.649e-5
1.120,   1.623e-5
1.121,   1.595e-5
1.122,   1.570e-5
1.123,   1.541e-5
1.124,   1.524e-5
1.125,   1.503e-5
1.126,   1.488e-5
1.127,   1.468e-5
1.128,   1.447e-5
1.129,   1.430e-5
1.130,   1.418e-5
1.131,   1.399e-5
1.132,   1.385e-5
1.133,   1.375e-5
1.134,   1.362e-5
1.135,   1.350e-5
1.136,   1.336e-5
1.137,   1.327e-5
1.138,   1.319e-5
1.139,   1.305e-5
1.140,   1.296e-5
1.141,   1.287e-5
1.142,   1.280e-5
1.143,   1.274e-5
1.144,   1.270e-5
1.145,   1.256e-5
1.146,   1.253e-5
1.147,   1.242e-5
1.148,   1.239e-5
1.149,   1.232e-5
1.150,   1.223e-5
1.151,   1.220e-5
1.152,   1.217e-5
1.153,   1.216e-5
1.154,   1.213e-5
1.155,   1.204e-5
1.156,   1.200e-5
1.157,   1.195e-5
1.158,   1.189e-5
1.159,   1.185e-5
1.160,   1.183e-5
1.161,   1.176e-5
1.162,   1.176e-5
1.163,   1.175e-5
1.164,   1.177e-5
1.165,   1.169e-5
1.166,   1.168e-5
1.167,   1.165e-5
1.168,   1.158e-5
1.169,   1.156e-5
1.170,   1.157e-5
1.171,   1.157e-5
1.172,   1.152e-5
1.173,   1.152e-5
1.174,   1.150e-5
1.175,   1.150e-5
1.176,   1.153e-5
1.177,   1.149e-5
1.178,   1.147e-5
1.179,   1.151e-5
1.180,   1.147e-5
1.181,   1.148e-5
1.182,   1.145e-5
1.183,   1.146e-5
1.184,   1.145e-5
1.185,   1.148e-5
1.186,   1.147e-5
1.187,   1.148e-5
1.188,   1.146e-5
1.189,   1.141e-5
1.190,   1.140e-5
1.191,   1.142e-5
1.192,   1.146e-5
1.193,   1.146e-5
1.194,   1.149e-5
1.195,   1.148e-5
1.196,   1.146e-5
1.197,   1.149e-5
1.198,   1.147e-5
1.199,   1.153e-5
1.200,   1.154e-5
1.201,   1.154e-5
1.202,   1.159e-5
1.203,   1.162e-5
1.204,   1.165e-5
1.205,   1.165e-5
1.206,   1.163e-5
1.207,   1.162e-5
1.208,   1.163e-5
1.209,   1.166e-5
1.210,   1.167e-5
1.211,   1.169e-5
1.212,   1.172e-5
1.213,   1.173e-5
1.214,   1.178e-5
1.215,   1.182e-5
1.216,   1.178e-5
1.217,   1.182e-5
1.218,   1.184e-5
1.219,   1.185e-5
1.220,   1.191e-5
1.221,   1.194e-5
1.222,   1.194e-5
1.223,   1.197e-5
1.224,   1.199e-5
1.225,   1.202e-5
1.226,   1.207e-5
1.227,   1.209e-5
1.228,   1.213e-5
1.229,   1.217e-5
1.230,   1.220e-5
1.231,   1.219e-5
1.232,   1.223e-5
1.233,   1.227e-5
1.234,   1.229e-5
1.235,   1.234e-5
1.236,   1.237e-5
1.237,   1.241e-5
1.238,   1.247e-5
1.239,   1.254e-5
1.240,   1.253e-5
1.241,   1.253e-5
1.242,   1.261e-5
1.243,   1.265e-5
1.244,   1.268e-5
1.245,   1.273e-5
1.246,   1.275e-5
1.247,   1.286e-5
1.248,   1.286e-5
1.249,   1.290e-5
1.250,   1.296e-5
1.251,   1.298e-5
1.252,   1.302e-5
1.253,   1.310e-5
1.254,   1.310e-5
1.255,   1.318e-5
1.256,   1.326e-5
1.257,   1.326e-5
1.258,   1.333e-5
1.259,   1.337e-5
1.260,   1.345e-5
1.261,   1.353e-5
1.262,   1.357e-5
1.263,   1.363e-5
1.264,   1.372e-5
1.265,   1.381e-5
1.266,   1.386e-5
1.267,   1.392e-5
1.268,   1.396e-5
1.269,   1.404e-5
1.270,   1.411e-5
1.271,   1.421e-5
1.272,   1.423e-5
1.273,   1.432e-5
1.274,   1.442e-5
1.275,   1.447e-5
1.276,   1.456e-5
1.277,   1.461e-5
1.278,   1.470e-5
1.279,   1.475e-5
1.280,   1.481e-5
1.281,   1.489e-5
1.282,   1.496e-5
1.283,   1.506e-5
1.284,   1.513e-5
1.285,   1.523e-5
1.286,   1.535e-5
1.287,   1.542e-5
1.288,   1.549e-5
1.289,   1.560e-5
1.290,   1.568e-5
1.291,   1.578e-5
1.292,   1.586e-5
1.293,   1.594e-5
1.294,   1.606e-5
1.295,   1.618e-5
1.296,   1.629e-5
1.297,   1.639e-5
1.298,   1.651e-5
1.299,   1.655e-5
1.300,   1.672e-5
1.301,   1.682e-5
1.302,   1.692e-5
1.303,   1.702e-5
1.304,   1.714e-5
1.305,   1.724e-5
1.306,   1.735e-5
1.307,   1.748e-5
1.308,   1.760e-5
1.309,   1.772e-5
1.310,   1.785e-5
1.311,   1.794e-5
1.312,   1.808e-5
1.313,   1.822e-5
1.314,   1.833e-5
1.315,   1.846e-5
1.316,   1.862e-5
1.317,   1.882e-5
1.318,   1.893e-5
1.319,   1.909e-5
1.320,   1.919e-5
1.321,   1.933e-5
1.322,   1.951e-5
1.323,   1.964e-5
1.324,   1.977e-5
1.325,   1.993e-5
1.326,   2.006e-5
1.327,   2.025e-5
1.328,   2.041e-5
1.329,   2.053e-5
1.330,   2.071e-5
1.331,   2.091e-5
1.332,   2.103e-5
1.333,   2.123e-5
1.334,   2.143e-5
1.335,   2.187e-5
1.336,   2.207e-5
1.337,   2.204e-5
1.338,   2.208e-5
1.339,   2.225e-5
1.340,   2.239e-5
1.341,   2.255e-5
1.342,   2.275e-5
1.343,   2.299e-5
1.344,   2.320e-5
1.345,   2.341e-5
1.346,   2.366e-5
1.347,   2.384e-5
1.348,   2.401e-5
1.349,   2.425e-5
1.350,   2.445e-5
1.351,   2.467e-5
1.352,   2.512e-5
1.353,   2.532e-5
1.354,   2.547e-5
1.355,   2.569e-5
1.356,   2.596e-5
1.357,   2.621e-5
1.358,   2.647e-5
1.359,   2.674e-5
1.360,   2.701e-5
1.361,   2.736e-5
1.362,   2.760e-5
1.363,   2.789e-5
1.364,   2.827e-5
1.365,   2.865e-5
1.366,   2.899e-5
1.367,   2.941e-5
1.368,   2.982e-5
1.369,   3.024e-5
1.370,   3.070e-5
1.371,   3.111e-5
1.372,   3.163e-5
1.373,   3.217e-5
1.374,   3.269e-5
1.375,   3.327e-5
1.376,   3.383e-5
1.377,   3.451e-5
1.378,   3.518e-5
1.379,   3.582e-5
1.380,   3.661e-5
1.381,   3.744e-5
1.382,   3.826e-5
1.383,   3.914e-5
1.384,   3.999e-5
1.385,   4.096e-5
1.386,   4.196e-5
1.387,   4.305e-5
1.388,   4.421e-5
1.389,   4.544e-5
1.390,   4.670e-5
1.391,   4.800e-5
1.392,   4.946e-5
1.393,   5.088e-5
1.394,   5.244e-5
1.395,   5.404e-5
1.396,   5.566e-5
1.397,   5.745e-5
1.398,   5.931e-5
1.399,   6.123e-5
1.400,   6.330e-5
1.401,   6.552e-5
1.402,   6.780e-5
1.403,   7.027e-5
1.404,   7.280e-5
1.405,   7.539e-5
1.406,   7.803e-5
1.407,   8.076e-5
1.408,   8.346e-5
1.409,   8.641e-5
1.410,   8.967e-5
1.411,   9.285e-5
1.412,   9.626e-5
1.413,   9.965e-5
1.414,   1.033e-4
1.415,   1.069e-4
1.416,   1.109e-4
1.417,   1.149e-4
1.418,   1.190e-4
1.419,   1.233e-4
1.420,   1.278e-4
1.421,   1.326e-4
1.422,   1.373e-4
1.423,   1.421e-4
1.424,   1.469e-4
1.425,   1.521e-4
1.426,   1.575e-4
1.427,   1.629e-4
1.428,   1.685e-4
1.429,   1.742e-4
1.430,   1.801e-4
1.431,   1.863e-4
1.432,   1.926e-4
1.433,   1.989e-4
1.434,   2.054e-4
1.435,   2.122e-4
1.436,   2.190e-4
1.437,   2.262e-4
1.438,   2.334e-4
1.439,   2.411e-4
1.440,   2.486e-4
1.441,   2.565e-4
1.442,   2.648e-4
1.443,   2.733e-4
1.444,   2.822e-4
1.445,   2.913e-4
1.446,   3.004e-4
1.447,   3.097e-4
1.448,   3.188e-4
1.449,   3.286e-4
1.450,   3.385e-4
1.451,   3.489e-4
1.452,   3.595e-4
1.453,   3.702e-4
1.454,   3.812e-4
1.455,   3.927e-4
1.456,   4.045e-4
1.457,   4.158e-4
1.458,   4.278e-4
1.459,   4.399e-4
1.460,   4.520e-4
1.461,   4.647e-4
1.462,   4.776e-4
1.463,   4.912e-4
1.464,   5.046e-4
1.465,   5.186e-4
1.466,   5.328e-4
1.467,   5.464e-4
1.468,   5.608e-4
1.469,   5.756e-4
1.470,   5.896e-4
1.471,   6.046e-4
1.472,   6.203e-4
1.473,   6.362e-4
1.474,   6.517e-4
1.475,   6.670e-4
1.476,   6.828e-4
1.477,   6.984e-4
1.478,   7.141e-4
1.479,   7.298e-4
1.480,   7.463e-4
1.481,   7.617e-4
1.482,   7.779e-4
1.483,   7.948e-4
1.484,   8.129e-4
1.485,   8.306e-4
1.486,   8.481e-4
1.487,   8.639e-4
1.488,   8.817e-4
1.489,   8.988e-4
1.490,   9.170e-4
1.491,   9.348e-4
1.492,   9.524e-4
1.493,   9.711e-4
1.494,   9.872e-4
1.495,   1.004e-3
1.496,   1.024e-3
1.497,   1.044e-3
1.498,   1.062e-3
1.499,   1.079e-3
1.500,   1.099e-3
1.501,   1.117e-3
1.502,   1.135e-3
1.503,   1.153e-3
1.504,   1.172e-3
1.505,   1.189e-3
1.506,   1.209e-3
1.507,   1.230e-3
1.508,   1.250e-3
1.509,   1.265e-3
1.510,   1.280e-3
1.511,   1.298e-3
1.512,   1.318e-3
1.513,   1.339e-3
1.514,   1.358e-3
1.515,   1.379e-3
1.516,   1.399e-3
1.517,   1.416e-3
1.518,   1.433e-3
1.519,   1.454e-3
1.520,   1.471e-3
1.521,   1.482e-3
1.522,   1.500e-3
1.523,   1.516e-3
1.524,   1.533e-3
1.525,   1.550e-3
1.526,   1.567e-3
1.527,   1.584e-3
1.528,   1.601e-3
1.529,   1.614e-3
1.530,   1.631e-3
1.531,   1.650e-3
1.532,   1.658e-3
1.533,   1.675e-3
1.534,   1.689e-3
1.535,   1.709e-3
1.536,   1.729e-3
1.537,   1.746e-3
1.538,   1.759e-3
1.539,   1.770e-3
1.540,   1.785e-3
1.541,   1.802e-3
1.542,   1.814e-3
1.543,   1.824e-3
1.544,   1.839e-3
1.545,   1.857e-3
1.546,   1.872e-3
1.547,   1.887e-3
1.548,   1.901e-3
1.549,   1.912e-3
1.550,   1.923e-3
1.551,   1.930e-3
1.552,   1.943e-3
1.553,   1.952e-3
1.554,   1.967e-3
1.555,   1.993e-3
1.556,   2.024e-3
1.557,   2.041e-3
1.558,   2.055e-3
1.559,   2.066e-3
1.560,   2.076e-3
1.561,   2.083e-3
1.562,   2.097e-3
1.563,   2.104e-3
1.564,   2.114e-3
1.565,   2.126e-3
1.566,   2.142e-3
1.567,   2.149e-3
1.568,   2.160e-3
1.569,   2.171e-3
1.570,   2.182e-3
1.571,   2.189e-3
1.572,   2.202e-3
1.573,   2.218e-3
1.574,   2.223e-3
1.575,   2.231e-3
1.576,   2.232e-3
1.577,   2.237e-3
1.578,   2.254e-3
1.579,   2.270e-3
1.580,   2.282e-3
1.581,   2.296e-3
1.582,   2.305e-3
1.583,   2.315e-3
1.584,   2.324e-3
1.585,   2.332e-3
1.586,   2.350e-3
1.587,   2.353e-3
1.588,   2.363e-3
1.589,   2.374e-3
1.590,   2.384e-3
1.591,   2.392e-3
1.592,   2.400e-3
1.593,   2.401e-3
1.594,   2.410e-3
1.595,   2.419e-3
1.596,   2.421e-3
1.597,   2.435e-3
1.598,   2.444e-3
1.599,   2.446e-3
1.600,   2.458e-3
1.601,   2.465e-3
1.602,   2.473e-3
1.603,   2.479e-3
1.604,   2.487e-3
1.605,   2.503e-3
1.606,   2.517e-3
1.607,   2.523e-3
1.608,   2.527e-3
1.609,   2.529e-3
1.610,   2.532e-3
1.611,   2.543e-3
1.612,   2.544e-3