File: Experimental Records and Raw Data/batch1/final400/B1_VARIANCE_400_#3_High_Quality-223mV.txt
Dec. 8, 2022   16:59:22
Linear Sweep Voltammetry
File: d:\current work\al_oer\electrochemical test data\batch 1\400\B1_VARIANCE_400_#3_High_Quality-223mV.txt
Data Source:  Experiment
Instrument Model:  CHI660E
Header:
Note:

Init E (V) = 1.103

Final E (V) = 1.502

Scan Rate (V/s) = 0.010
Sample Interval (V) = 0.001
Quiet Time (sec) = 2
Sensitivity (A/V) = 0.001
Comp R (ohm) = 6.2

Results:

Channel 1:

Potential/V, Current/A
1.103,   4.051e-5
1.104,   4.740e-5
1.105,   4.642e-5
1.106,   4.472e-5
1.107,   4.327e-5
1.108,   4.192e-5
1.109,   4.073e-5
1.110,   3.986e-5
1.111,   3.893e-5
1.112,   3.808e-5
1.113,   3.746e-5
1.114,   3.678e-5
1.115,   3.621e-5
1.116,   3.562e-5
1.117,   3.521e-5
1.118,   3.474e-5
1.119,   3.423e-5
1.120,   3.387e-5
1.121,   3.356e-5
1.122,   3.315e-5
1.123,   3.303e-5
1.124,   3.288e-5
1.125,   3.245e-5
1.126,   3.229e-5
1.127,   3.194e-5
1.128,   3.179e-5
1.129,   3.163e-5
1.130,   3.146e-5
1.131,   3.135e-5
1.132,   3.116e-5
1.133,   3.104e-5
1.134,   3.103e-5
1.135,   3.081e-5
1.136,   3.083e-5
1.137,   3.078e-5
1.138,   3.053e-5
1.139,   3.051e-5
1.140,   3.047e-5
1.141,   3.031e-5
1.142,   3.036e-5
1.143,   3.027e-5
1.144,   3.020e-5
1.145,   3.025e-5
1.146,   3.013e-5
1.147,   3.020e-5
1.148,   3.013e-5
1.149,   3.016e-5
1.150,   3.017e-5
1.151,   3.008e-5
1.152,   3.011e-5
1.153,   3.015e-5
1.154,   3.005e-5
1.155,   3.011e-5
1.156,   3.011e-5
1.157,   3.005e-5
1.158,   3.017e-5
1.159,   3.006e-5
1.160,   3.014e-5
1.161,   3.023e-5
1.162,   3.020e-5
1.163,   3.026e-5
1.164,   3.024e-5
1.165,   3.019e-5
1.166,   3.031e-5
1.167,   3.030e-5
1.168,   3.032e-5
1.169,   3.048e-5
1.170,   3.035e-5
1.171,   3.048e-5
1.172,   3.050e-5
1.173,   3.049e-5
1.174,   3.067e-5
1.175,   3.070e-5
1.176,   3.064e-5
1.177,   3.074e-5
1.178,   3.068e-5
1.179,   3.084e-5
1.180,   3.083e-5
1.181,   3.089e-5
1.182,   3.104e-5
1.183,   3.096e-5
1.184,   3.105e-5
1.185,   3.115e-5
1.186,   3.110e-5
1.187,   3.128e-5
1.188,   3.134e-5
1.189,   3.132e-5
1.190,   3.144e-5
1.191,   3.142e-5
1.192,   3.151e-5
1.193,   3.158e-5
1.194,   3.159e-5
1.195,   3.170e-5
1.196,   3.178e-5
1.197,   3.182e-5
1.198,   3.195e-5
1.199,   3.185e-5
1.200,   3.199e-5
1.201,   3.213e-5
1.202,   3.208e-5
1.203,   3.219e-5
1.204,   3.222e-5
1.205,   3.224e-5
1.206,   3.244e-5
1.207,   3.240e-5
1.208,   3.246e-5
1.209,   3.256e-5
1.210,   3.255e-5
1.211,   3.272e-5
1.212,   3.270e-5
1.213,   3.279e-5
1.214,   3.291e-5
1.215,   3.282e-5
1.216,   3.294e-5
1.217,   3.304e-5
1.218,   3.295e-5
1.219,   3.309e-5
1.220,   3.321e-5
1.221,   3.315e-5
1.222,   3.331e-5
1.223,   3.328e-5
1.224,   3.336e-5
1.225,   3.351e-5
1.226,   3.345e-5
1.227,   3.358e-5
1.228,   3.360e-5
1.229,   3.363e-5
1.230,   3.380e-5
1.231,   3.374e-5
1.232,   3.383e-5
1.233,   3.397e-5
1.234,   3.389e-5
1.235,   3.403e-5
1.236,   3.406e-5
1.237,   3.409e-5
1.238,   3.425e-5
1.239,   3.425e-5
1.240,   3.431e-5
1.241,   3.438e-5
1.242,   3.430e-5
1.243,   3.447e-5
1.244,   3.444e-5
1.245,   3.450e-5
1.246,   3.461e-5
1.247,   3.458e-5
1.248,   3.471e-5
1.249,   3.478e-5
1.250,   3.470e-5
1.251,   3.492e-5
1.252,   3.488e-5
1.253,   3.492e-5
1.254,   3.504e-5
1.255,   3.500e-5
1.256,   3.510e-5
1.257,   3.512e-5
1.258,   3.521e-5
1.259,   3.528e-5
1.260,   3.526e-5
1.261,   3.529e-5
1.262,   3.545e-5
1.263,   3.539e-5
1.264,   3.557e-5
1.265,   3.568e-5
1.266,   3.550e-5
1.267,   3.558e-5
1.268,   3.571e-5
1.269,   3.570e-5
1.270,   3.585e-5
1.271,   3.580e-5
1.272,   3.584e-5
1.273,   3.597e-5
1.274,   3.592e-5
1.275,   3.604e-5
1.276,   3.604e-5
1.277,   3.614e-5
1.278,   3.627e-5
1.279,   3.612e-5
1.280,   3.623e-5
1.281,   3.638e-5
1.282,   3.630e-5
1.283,   3.644e-5
1.284,   3.654e-5
1.285,   3.650e-5
1.286,   3.663e-5
1.287,   3.659e-5
1.288,   3.664e-5
1.289,   3.678e-5
1.290,   3.685e-5
1.291,   3.686e-5
1.292,   3.691e-5
1.293,   3.690e-5
1.294,   3.708e-5
1.295,   3.702e-5
1.296,   3.716e-5
1.297,   3.727e-5
1.298,   3.711e-5
1.299,   3.724e-5
1.300,   3.732e-5
1.301,   3.726e-5
1.302,   3.749e-5
1.303,   3.746e-5
1.304,   3.754e-5
1.305,   3.762e-5
1.306,   3.755e-5
1.307,   3.767e-5
1.308,   3.769e-5
1.309,   3.774e-5
1.310,   3.793e-5
1.311,   3.783e-5
1.312,   3.795e-5
1.313,   3.804e-5
1.314,   3.800e-5
1.315,   3.820e-5
1.316,   3.824e-5
1.317,   3.820e-5
1.318,   3.841e-5
1.319,   3.835e-5
1.320,   3.849e-5
1.321,   3.866e-5
1.322,   3.866e-5
1.323,   3.878e-5
1.324,   3.884e-5
1.325,   3.892e-5
1.326,   3.908e-5
1.327,   3.901e-5
1.328,   3.934e-5
1.329,   3.949e-5
1.330,   3.936e-5
1.331,   3.954e-5
1.332,   3.961e-5
1.333,   3.965e-5
1.334,   3.989e-5
1.335,   3.988e-5
1.336,   3.999e-5
1.337,   4.020e-5
1.338,   4.016e-5
1.339,   4.035e-5
1.340,   4.049e-5
1.341,   4.071e-5
1.342,   4.087e-5
1.343,   4.087e-5
1.344,   4.100e-5
1.345,   4.123e-5
1.346,   4.122e-5
1.347,   4.155e-5
1.348,   4.166e-5
1.349,   4.178e-5
1.350,   4.201e-5
1.351,   4.211e-5
1.352,   4.229e-5
1.353,   4.260e-5
1.354,   4.280e-5
1.355,   4.301e-5
1.356,   4.320e-5
1.357,   4.330e-5
1.358,   4.373e-5
1.359,   4.384e-5
1.360,   4.424e-5
1.361,   4.452e-5
1.362,   4.469e-5
1.363,   4.506e-5
1.364,   4.547e-5
1.365,   4.569e-5
1.366,   4.620e-5
1.367,   4.658e-5
1.368,   4.695e-5
1.369,   4.749e-5
1.370,   4.780e-5
1.371,   4.842e-5
1.372,   4.891e-5
1.373,   4.956e-5
1.374,   5.019e-5
1.375,   5.067e-5
1.376,   5.146e-5
1.377,   5.231e-5
1.378,   5.294e-5
1.379,   5.406e-5
1.380,   5.499e-5
1.381,   5.586e-5
1.382,   5.697e-5
1.383,   5.798e-5
1.384,   5.932e-5
1.385,   6.075e-5
1.386,   6.212e-5
1.387,   6.380e-5
1.388,   6.545e-5
1.389,   6.724e-5
1.390,   6.928e-5
1.391,   7.124e-5
1.392,   7.374e-5
1.393,   7.633e-5
1.394,   7.882e-5
1.395,   8.181e-5
1.396,   8.496e-5
1.397,   8.815e-5
1.398,   9.197e-5
1.399,   9.573e-5
1.400,   9.989e-5
1.401,   1.046e-4
1.402,   1.092e-4
1.403,   1.146e-4
1.404,   1.203e-4
1.405,   1.263e-4
1.406,   1.330e-4
1.407,   1.398e-4
1.408,   1.474e-4
1.409,   1.556e-4
1.410,   1.641e-4
1.411,   1.735e-4
1.412,   1.834e-4
1.413,   1.939e-4
1.414,   2.054e-4
1.415,   2.174e-4
1.416,   2.303e-4
1.417,   2.443e-4
1.418,   2.589e-4
1.419,   2.747e-4
1.420,   2.912e-4
1.421,   3.088e-4
1.422,   3.279e-4
1.423,   3.475e-4
1.424,   3.688e-4
1.425,   3.913e-4
1.426,   4.148e-4
1.427,   4.401e-4
1.428,   4.667e-4
1.429,   4.946e-4
1.430,   5.242e-4
1.431,   5.556e-4
1.432,   5.885e-4
1.433,   6.234e-4
1.434,   6.599e-4
1.435,   6.986e-4
1.436,   7.392e-4
1.437,   7.821e-4
1.438,   8.273e-4
1.439,   8.745e-4
1.440,   9.246e-4
1.441,   9.773e-4
1.442,   1.032e-3
1.443,   1.091e-3
1.444,   1.152e-3
1.445,   1.217e-3
1.446,   1.286e-3
1.447,   1.356e-3
1.448,   1.430e-3
1.449,   1.509e-3
1.450,   1.593e-3
1.451,   1.680e-3
1.452,   1.772e-3
1.453,   1.867e-3
1.454,   1.966e-3
1.455,   2.073e-3
1.456,   2.189e-3
1.457,   2.298e-3
1.458,   2.416e-3
1.459,   2.543e-3
1.460,   2.671e-3
1.461,   2.812e-3
1.462,   2.953e-3
1.463,   3.106e-3
1.464,   3.267e-3
1.465,   3.431e-3
1.466,   3.608e-3
1.467,   3.787e-3
1.468,   3.979e-3
1.469,   4.178e-3
1.470,   4.391e-3
1.471,   4.607e-3
1.472,   4.831e-3
1.473,   5.065e-3
1.474,   5.310e-3
1.475,   5.570e-3
1.476,   5.834e-3
1.477,   6.112e-3
1.478,   6.406e-3
1.479,   6.711e-3
1.480,   7.025e-3
1.481,   7.352e-3
1.482,   7.696e-3
1.483,   8.048e-3
1.484,   8.407e-3
1.485,   8.788e-3
1.486,   9.179e-3
1.487,   9.565e-3
1.488,   9.950e-3
1.489,   1.006e-2
1.490,   1.006e-2
1.491,   1.006e-2
1.492,   1.006e-2
1.493,   1.006e-2
1.494,   1.006e-2
1.495,   1.006e-2
1.496,   1.006e-2
1.497,   1.006e-2
1.498,   1.006e-2
1.499,   1.006e-2
1.500,   1.006e-2
1.501,   1.006e-2
1.502,   1.006e-2