File: Experimental Records, Raw Data, and Supplementary Notes and Figures/batch0/Ru-400.txt
Nov. 28, 2022   17:03:04
Linear Sweep Voltammetry
File: d:\current work\al_oer\data retrieve\batch 0\ru-400.txt
Data Source:  Experiment
Instrument Model:  CHI760E
Header:
Note:

Init E (V) = 1.098

Final E (V) = 1.497

Scan Rate (V/s) = 0.010
Sample Interval (V) = 0.001
Quiet Time (sec) = 2
Sensitivity (A/V) = 0.001
Comp R (ohm) = 4.8

Results:

Channel 1:

Potential/V, Current/A

1.098,	1.02E-04
1.099,	0.0001116
1.1,	0.0001068
1.101,	0.0001015
1.102,	0.00009761
1.103,	0.00009394
1.104,	0.00009045
1.105,	0.0000877
1.106,	0.00008507
1.107,	0.00008263
1.108,	0.00008084
1.109,	0.00007871
1.11,	0.00007706
1.111,	0.00007539
1.112,	0.00007398
1.113,	0.00007281
1.114,	0.00007139
1.115,	0.00007029
1.116,	0.0000694
1.117,	0.00006818
1.118,	0.00006763
1.119,	0.00006691
1.12,	0.00006578
1.121,	0.00006528
1.122,	0.00006449
1.123,	0.00006387
1.124,	0.00006346
1.125,	0.0000628
1.126,	0.00006229
1.127,	0.00006185
1.128,	0.00006128
1.129,	0.00006102
1.13,	0.00006045
1.131,	0.00006034
1.132,	0.00006009
1.133,	0.00005942
1.134,	0.0000592
1.135,	0.000059
1.136,	0.00005856
1.137,	0.00005861
1.138,	0.0000582
1.139,	0.00005798
1.14,	0.00005796
1.141,	0.00005786
1.142,	0.0000574
1.143,	0.00005724
1.144,	0.00005708
1.145,	0.0000571
1.146,	0.00005672
1.147,	0.00005669
1.148,	0.00005673
1.149,	0.00005627
1.15,	0.00005646
1.151,	0.00005623
1.152,	0.0000561
1.153,	0.00005615
1.154,	0.00005591
1.155,	0.00005589
1.156,	0.000056
1.157,	0.00005586
1.158,	0.00005581
1.159,	0.00005574
1.16,	0.00005553
1.161,	0.00005575
1.162,	0.00005538
1.163,	0.00005551
1.164,	0.0000556
1.165,	0.00005534
1.166,	0.00005552
1.167,	0.00005547
1.168,	0.00005527
1.169,	0.0000554
1.17,	0.00005553
1.171,	0.00005538
1.172,	0.00005545
1.173,	0.00005519
1.174,	0.0000554
1.175,	0.00005536
1.176,	0.00005529
1.177,	0.00005548
1.178,	0.00005528
1.179,	0.0000553
1.18,	0.00005554
1.181,	0.00005533
1.182,	0.00005557
1.183,	0.00005556
1.184,	0.00005536
1.185,	0.00005566
1.186,	0.00005551
1.187,	0.00005543
1.188,	0.0000557
1.189,	0.00005554
1.19,	0.00005566
1.191,	0.00005561
1.192,	0.00005548
1.193,	0.00005572
1.194,	0.00005554
1.195,	0.00005577
1.196,	0.00005594
1.197,	0.00005577
1.198,	0.000056
1.199,	0.00005591
1.2,	0.00005573
1.201,	0.00005598
1.202,	0.00005586
1.203,	0.00005588
1.204,	0.00005627
1.205,	0.00005589
1.206,	0.00005604
1.207,	0.00005603
1.208,	0.00005611
1.209,	0.0000563
1.21,	0.0000559
1.211,	0.00005613
1.212,	0.00005633
1.213,	0.00005602
1.214,	0.00005628
1.215,	0.00005629
1.216,	0.00005611
1.217,	0.00005642
1.218,	0.00005627
1.219,	0.00005616
1.22,	0.00005646
1.221,	0.00005621
1.222,	0.00005644
1.223,	0.00005644
1.224,	0.00005633
1.225,	0.00005653
1.226,	0.00005628
1.227,	0.00005651
1.228,	0.00005666
1.229,	0.00005631
1.23,	0.00005654
1.231,	0.00005648
1.232,	0.00005642
1.233,	0.00005669
1.234,	0.00005666
1.235,	0.00005648
1.236,	0.00005677
1.237,	0.0000564
1.238,	0.00005669
1.239,	0.0000565
1.24,	0.00005651
1.241,	0.0000567
1.242,	0.00005644
1.243,	0.00005663
1.244,	0.00005673
1.245,	0.00005652
1.246,	0.00005671
1.247,	0.00005667
1.248,	0.00005655
1.249,	0.00005668
1.25,	0.00005657
1.251,	0.0000566
1.252,	0.00005667
1.253,	0.0000566
1.254,	0.00005661
1.255,	0.00005663
1.256,	0.00005656
1.257,	0.00005677
1.258,	0.00005652
1.259,	0.00005677
1.26,	0.00005685
1.261,	0.0000565
1.262,	0.00005674
1.263,	0.00005677
1.264,	0.00005647
1.265,	0.00005684
1.266,	0.00005671
1.267,	0.00005668
1.268,	0.00005679
1.269,	0.00005655
1.27,	0.00005672
1.271,	0.00005673
1.272,	0.00005683
1.273,	0.00005692
1.274,	0.00005671
1.275,	0.00005681
1.276,	0.00005692
1.277,	0.00005669
1.278,	0.00005693
1.279,	0.00005697
1.28,	0.00005673
1.281,	0.00005697
1.282,	0.00005681
1.283,	0.00005693
1.284,	0.00005706
1.285,	0.00005712
1.286,	0.00005707
1.287,	0.00005707
1.288,	0.000057
1.289,	0.00005722
1.29,	0.00005694
1.291,	0.0000573
1.292,	0.00005747
1.293,	0.00005719
1.294,	0.00005734
1.295,	0.00005744
1.296,	0.00005727
1.297,	0.00005765
1.298,	0.00005755
1.299,	0.00005759
1.3,	0.0000578
1.301,	0.00005766
1.302,	0.00005777
1.303,	0.00005787
1.304,	0.00005798
1.305,	0.00005819
1.306,	0.0000579
1.307,	0.00005815
1.308,	0.00005839
1.309,	0.00005806
1.31,	0.00005851
1.311,	0.00005872
1.312,	0.00005853
1.313,	0.00005887
1.314,	0.00005876
1.315,	0.00005884
1.316,	0.00005913
1.317,	0.00005916
1.318,	0.00005935
1.319,	0.0000594
1.32,	0.00005934
1.321,	0.00005994
1.322,	0.00005976
1.323,	0.00006035
1.324,	0.00006058
1.325,	0.00006025
1.326,	0.00006064
1.327,	0.00006078
1.328,	0.00006076
1.329,	0.00006124
1.33,	0.00006131
1.331,	0.00006144
1.332,	0.00006186
1.333,	0.00006185
1.334,	0.00006224
1.335,	0.00006245
1.336,	0.00006278
1.337,	0.00006316
1.338,	0.00006307
1.339,	0.0000636
1.34,	0.0000641
1.341,	0.00006398
1.342,	0.00006465
1.343,	0.00006509
1.344,	0.00006515
1.345,	0.00006591
1.346,	0.00006606
1.347,	0.00006649
1.348,	0.00006713
1.349,	0.00006759
1.35,	0.00006798
1.351,	0.00006872
1.352,	0.00006906
1.353,	0.00006995
1.354,	0.00007026
1.355,	0.00007103
1.356,	0.00007193
1.357,	0.0000724
1.358,	0.0000734
1.359,	0.00007417
1.36,	0.00007474
1.361,	0.00007627
1.362,	0.00007714
1.363,	0.00007795
1.364,	0.00007924
1.365,	0.00008016
1.366,	0.00008151
1.367,	0.00008275
1.368,	0.00008415
1.369,	0.0000858
1.37,	0.00008702
1.371,	0.00008888
1.372,	0.00009077
1.373,	0.00009229
1.374,	0.00009458
1.375,	0.00009675
1.376,	0.00009868
1.377,	0.0001015
1.378,	0.0001035
1.379,	0.0001062
1.38,	0.0001092
1.381,	0.000112
1.382,	0.0001155
1.383,	0.0001188
1.384,	0.0001221
1.385,	0.0001264
1.386,	0.0001301
1.387,	0.0001347
1.388,	0.0001395
1.389,	0.0001438
1.39,	0.0001493
1.391,	0.0001549
1.392,	0.0001605
1.393,	0.0001672
1.394,	0.0001735
1.395,	0.0001805
1.396,	0.0001882
1.397,	0.0001956
1.398,	0.0002043
1.399,	0.000213
1.4,	0.0002224
1.401,	0.0002329
1.402,	0.0002431
1.403,	0.0002543
1.404,	0.0002664
1.405,	0.0002786
1.406,	0.0002923
1.407,	0.0003063
1.408,	0.0003211
1.409,	0.0003378
1.41,	0.0003538
1.411,	0.0003714
1.412,	0.0003904
1.413,	0.0004107
1.414,	0.0004313
1.415,	0.000453
1.416,	0.0004762
1.417,	0.0005012
1.418,	0.0005262
1.419,	0.0005538
1.42,	0.0005828
1.421,	0.000613
1.422,	0.0006451
1.423,	0.0006784
1.424,	0.0007134
1.425,	0.000751
1.426,	0.0007897
1.427,	0.0008306
1.428,	0.0008755
1.429,	0.0009195
1.43,	0.0009693
1.431,	0.001018
1.432,	0.00107
1.433,	0.001126
1.434,	0.001182
1.435,	0.001244
1.436,	0.001308
1.437,	0.001374
1.438,	0.001443
1.439,	0.001516
1.44,	0.001592
1.441,	0.001671
1.442,	0.001756
1.443,	0.001843
1.444,	0.001933
1.445,	0.002027
1.446,	0.00213
1.447,	0.002233
1.448,	0.002339
1.449,	0.002452
1.45,	0.002571
1.451,	0.002694
1.452,	0.002819
1.453,	0.002946
1.454,	0.003084
1.455,	0.00323
1.456,	0.00337
1.457,	0.003525
1.458,	0.003684
1.459,	0.003842
1.46,	0.004005
1.461,	0.004176
1.462,	0.00435
1.463,	0.004532
1.464,	0.004712
1.465,	0.004909
1.466,	0.005121
1.467,	0.005327
1.468,	0.005534
1.469,	0.005749
1.47,	0.005963
1.471,	0.006191
1.472,	0.006404
1.473,	0.006625
1.474,	0.00689
1.475,	0.007143
1.476,	0.007392
1.477,	0.007693
1.478,	0.007949
1.479,	0.008186
1.48,	0.008434
1.481,	0.008917
1.482,	0.009668
1.483,	0.01001
1.484,	0.01006
1.485,	0.01006
1.486,	0.01006
1.487,	0.01006
1.488,	0.01006
1.489,	0.01006
1.49,	0.01006
1.491,	0.01006
1.492,	0.01006
1.493,	0.01006
1.494,	0.01006
1.495,	0.01006
1.496,	0.01006
1.497,	0.01006