File: Experimental Records and Raw Data/batch5/final400/B5_BEST_400_#1_Full(#11)-246mV.txt
May 31, 2023   15:45:12
Linear Sweep Voltammetry
File: d:\current work\al_oer\electrochemical test data\batch 5\400\B5_BEST_400_#1_Full(#11)-246mV.txt
Data Source:  Experiment
Instrument Model:  CHI660E
Header:
Note:

Init E (V) = 0.899

Final E (V) = 1.570

Scan Rate (V/s) = 0.010
Sample Interval (V) = 0.001
Quiet Time (sec) = 2
Sensitivity (A/V) = 0.001
Comp R (ohm) = 6.4

Results:

Channel 1:

Potential/V, Current/A
0.899,   1.190e-4
0.900,   1.267e-4
0.901,   1.281e-4
0.902,   1.289e-4
0.903,   1.284e-4
0.904,   1.283e-4
0.905,   1.277e-4
0.906,   1.276e-4
0.907,   1.273e-4
0.908,   1.266e-4
0.909,   1.259e-4
0.910,   1.254e-4
0.911,   1.253e-4
0.912,   1.248e-4
0.913,   1.241e-4
0.914,   1.234e-4
0.915,   1.225e-4
0.916,   1.226e-4
0.917,   1.222e-4
0.918,   1.216e-4
0.919,   1.209e-4
0.920,   1.203e-4
0.921,   1.202e-4
0.922,   1.197e-4
0.923,   1.190e-4
0.924,   1.183e-4
0.925,   1.182e-4
0.926,   1.178e-4
0.927,   1.172e-4
0.928,   1.167e-4
0.929,   1.164e-4
0.930,   1.161e-4
0.931,   1.157e-4
0.932,   1.152e-4
0.933,   1.143e-4
0.934,   1.141e-4
0.935,   1.135e-4
0.936,   1.135e-4
0.937,   1.134e-4
0.938,   1.121e-4
0.939,   1.122e-4
0.940,   1.120e-4
0.941,   1.117e-4
0.942,   1.112e-4
0.943,   1.106e-4
0.944,   1.102e-4
0.945,   1.102e-4
0.946,   1.100e-4
0.947,   1.096e-4
0.948,   1.088e-4
0.949,   1.087e-4
0.950,   1.087e-4
0.951,   1.083e-4
0.952,   1.079e-4
0.953,   1.074e-4
0.954,   1.072e-4
0.955,   1.074e-4
0.956,   1.070e-4
0.957,   1.064e-4
0.958,   1.060e-4
0.959,   1.061e-4
0.960,   1.059e-4
0.961,   1.055e-4
0.962,   1.049e-4
0.963,   1.049e-4
0.964,   1.045e-4
0.965,   1.042e-4
0.966,   1.043e-4
0.967,   1.036e-4
0.968,   1.034e-4
0.969,   1.034e-4
0.970,   1.031e-4
0.971,   1.029e-4
0.972,   1.025e-4
0.973,   1.023e-4
0.974,   1.020e-4
0.975,   1.021e-4
0.976,   1.018e-4
0.977,   1.012e-4
0.978,   1.011e-4
0.979,   1.012e-4
0.980,   1.009e-4
0.981,   1.002e-4
0.982,   1.001e-4
0.983,   9.983e-5
0.984,   9.993e-5
0.985,   9.978e-5
0.986,   9.934e-5
0.987,   9.899e-5
0.988,   9.895e-5
0.989,   9.903e-5
0.990,   9.888e-5
0.991,   9.842e-5
0.992,   9.839e-5
0.993,   9.782e-5
0.994,   9.812e-5
0.995,   9.786e-5
0.996,   9.741e-5
0.997,   9.715e-5
0.998,   9.734e-5
0.999,   9.738e-5
1.000,   9.668e-5
1.001,   9.645e-5
1.002,   9.628e-5
1.003,   9.622e-5
1.004,   9.640e-5
1.005,   9.597e-5
1.006,   9.570e-5
1.007,   9.576e-5
1.008,   9.527e-5
1.009,   9.563e-5
1.010,   9.540e-5
1.011,   9.491e-5
1.012,   9.477e-5
1.013,   9.493e-5
1.014,   9.480e-5
1.015,   9.473e-5
1.016,   9.432e-5
1.017,   9.394e-5
1.018,   9.418e-5
1.019,   9.458e-5
1.020,   9.396e-5
1.021,   9.355e-5
1.022,   9.362e-5
1.023,   9.393e-5
1.024,   9.360e-5
1.025,   9.335e-5
1.026,   9.311e-5
1.027,   9.309e-5
1.028,   9.326e-5
1.029,   9.302e-5
1.030,   9.271e-5
1.031,   9.212e-5
1.032,   9.238e-5
1.033,   9.256e-5
1.034,   9.266e-5
1.035,   9.193e-5
1.036,   9.208e-5
1.037,   9.193e-5
1.038,   9.214e-5
1.039,   9.187e-5
1.040,   9.162e-5
1.041,   9.152e-5
1.042,   9.151e-5
1.043,   9.164e-5
1.044,   9.140e-5
1.045,   9.102e-5
1.046,   9.142e-5
1.047,   9.119e-5
1.048,   9.115e-5
1.049,   9.078e-5
1.050,   9.052e-5
1.051,   9.063e-5
1.052,   9.081e-5
1.053,   9.075e-5
1.054,   9.061e-5
1.055,   9.024e-5
1.056,   9.031e-5
1.057,   9.057e-5
1.058,   9.030e-5
1.059,   9.015e-5
1.060,   8.993e-5
1.061,   9.000e-5
1.062,   9.032e-5
1.063,   8.995e-5
1.064,   8.985e-5
1.065,   8.977e-5
1.066,   8.977e-5
1.067,   8.993e-5
1.068,   8.976e-5
1.069,   8.967e-5
1.070,   8.971e-5
1.071,   8.972e-5
1.072,   8.994e-5
1.073,   8.935e-5
1.074,   8.934e-5
1.075,   8.941e-5
1.076,   8.945e-5
1.077,   8.953e-5
1.078,   8.942e-5
1.079,   8.943e-5
1.080,   8.936e-5
1.081,   8.945e-5
1.082,   8.929e-5
1.083,   8.898e-5
1.084,   8.921e-5
1.085,   8.940e-5
1.086,   8.938e-5
1.087,   8.900e-5
1.088,   8.913e-5
1.089,   8.900e-5
1.090,   8.908e-5
1.091,   8.971e-5
1.092,   8.904e-5
1.093,   8.889e-5
1.094,   8.919e-5
1.095,   8.923e-5
1.096,   8.956e-5
1.097,   8.902e-5
1.098,   8.899e-5
1.099,   8.912e-5
1.100,   8.918e-5
1.101,   8.923e-5
1.102,   8.926e-5
1.103,   8.916e-5
1.104,   8.926e-5
1.105,   8.935e-5
1.106,   8.954e-5
1.107,   8.920e-5
1.108,   8.914e-5
1.109,   8.938e-5
1.110,   8.933e-5
1.111,   8.922e-5
1.112,   8.986e-5
1.113,   8.957e-5
1.114,   8.911e-5
1.115,   8.948e-5
1.116,   8.948e-5
1.117,   8.945e-5
1.118,   8.981e-5
1.119,   8.934e-5
1.120,   8.970e-5
1.121,   8.962e-5
1.122,   8.981e-5
1.123,   8.939e-5
1.124,   8.960e-5
1.125,   8.996e-5
1.126,   9.012e-5
1.127,   9.008e-5
1.128,   8.958e-5
1.129,   9.000e-5
1.130,   9.060e-5
1.131,   9.045e-5
1.132,   8.994e-5
1.133,   9.007e-5
1.134,   9.035e-5
1.135,   9.045e-5
1.136,   9.046e-5
1.137,   9.058e-5
1.138,   9.041e-5
1.139,   9.075e-5
1.140,   9.098e-5
1.141,   9.077e-5
1.142,   9.029e-5
1.143,   9.073e-5
1.144,   9.100e-5
1.145,   9.118e-5
1.146,   9.114e-5
1.147,   9.106e-5
1.148,   9.118e-5
1.149,   9.146e-5
1.150,   9.169e-5
1.151,   9.181e-5
1.152,   9.131e-5
1.153,   9.175e-5
1.154,   9.203e-5
1.155,   9.189e-5
1.156,   9.187e-5
1.157,   9.199e-5
1.158,   9.225e-5
1.159,   9.218e-5
1.160,   9.244e-5
1.161,   9.220e-5
1.162,   9.219e-5
1.163,   9.244e-5
1.164,   9.288e-5
1.165,   9.273e-5
1.166,   9.274e-5
1.167,   9.291e-5
1.168,   9.296e-5
1.169,   9.326e-5
1.170,   9.365e-5
1.171,   9.281e-5
1.172,   9.349e-5
1.173,   9.360e-5
1.174,   9.388e-5
1.175,   9.391e-5
1.176,   9.373e-5
1.177,   9.392e-5
1.178,   9.430e-5
1.179,   9.397e-5
1.180,   9.420e-5
1.181,   9.443e-5
1.182,   9.477e-5
1.183,   9.443e-5
1.184,   9.491e-5
1.185,   9.494e-5
1.186,   9.497e-5
1.187,   9.520e-5
1.188,   9.564e-5
1.189,   9.594e-5
1.190,   9.530e-5
1.191,   9.558e-5
1.192,   9.574e-5
1.193,   9.636e-5
1.194,   9.628e-5
1.195,   9.621e-5
1.196,   9.593e-5
1.197,   9.638e-5
1.198,   9.655e-5
1.199,   9.706e-5
1.200,   9.741e-5
1.201,   9.723e-5
1.202,   9.721e-5
1.203,   9.761e-5
1.204,   9.750e-5
1.205,   9.747e-5
1.206,   9.764e-5
1.207,   9.744e-5
1.208,   9.827e-5
1.209,   9.844e-5
1.210,   9.798e-5
1.211,   9.852e-5
1.212,   9.917e-5
1.213,   9.879e-5
1.214,   9.934e-5
1.215,   9.877e-5
1.216,   9.913e-5
1.217,   9.980e-5
1.218,   1.001e-4
1.219,   9.979e-5
1.220,   9.940e-5
1.221,   1.001e-4
1.222,   1.008e-4
1.223,   1.007e-4
1.224,   1.008e-4
1.225,   1.007e-4
1.226,   1.014e-4
1.227,   1.019e-4
1.228,   1.016e-4
1.229,   1.015e-4
1.230,   1.018e-4
1.231,   1.019e-4
1.232,   1.023e-4
1.233,   1.024e-4
1.234,   1.026e-4
1.235,   1.021e-4
1.236,   1.028e-4
1.237,   1.032e-4
1.238,   1.035e-4
1.239,   1.032e-4
1.240,   1.036e-4
1.241,   1.039e-4
1.242,   1.042e-4
1.243,   1.044e-4
1.244,   1.046e-4
1.245,   1.048e-4
1.246,   1.054e-4
1.247,   1.052e-4
1.248,   1.054e-4
1.249,   1.052e-4
1.250,   1.058e-4
1.251,   1.065e-4
1.252,   1.065e-4
1.253,   1.067e-4
1.254,   1.068e-4
1.255,   1.071e-4
1.256,   1.074e-4
1.257,   1.073e-4
1.258,   1.075e-4
1.259,   1.079e-4
1.260,   1.082e-4
1.261,   1.090e-4
1.262,   1.083e-4
1.263,   1.086e-4
1.264,   1.088e-4
1.265,   1.096e-4
1.266,   1.103e-4
1.267,   1.101e-4
1.268,   1.099e-4
1.269,   1.095e-4
1.270,   1.105e-4
1.271,   1.109e-4
1.272,   1.109e-4
1.273,   1.111e-4
1.274,   1.113e-4
1.275,   1.118e-4
1.276,   1.120e-4
1.277,   1.121e-4
1.278,   1.126e-4
1.279,   1.124e-4
1.280,   1.130e-4
1.281,   1.136e-4
1.282,   1.137e-4
1.283,   1.140e-4
1.284,   1.139e-4
1.285,   1.147e-4
1.286,   1.150e-4
1.287,   1.149e-4
1.288,   1.146e-4
1.289,   1.148e-4
1.290,   1.156e-4
1.291,   1.160e-4
1.292,   1.153e-4
1.293,   1.163e-4
1.294,   1.163e-4
1.295,   1.169e-4
1.296,   1.170e-4
1.297,   1.170e-4
1.298,   1.178e-4
1.299,   1.180e-4
1.300,   1.176e-4
1.301,   1.180e-4
1.302,   1.188e-4
1.303,   1.189e-4
1.304,   1.191e-4
1.305,   1.199e-4
1.306,   1.196e-4
1.307,   1.198e-4
1.308,   1.202e-4
1.309,   1.204e-4
1.310,   1.211e-4
1.311,   1.214e-4
1.312,   1.213e-4
1.313,   1.210e-4
1.314,   1.219e-4
1.315,   1.222e-4
1.316,   1.222e-4
1.317,   1.230e-4
1.318,   1.229e-4
1.319,   1.236e-4
1.320,   1.237e-4
1.321,   1.239e-4
1.322,   1.242e-4
1.323,   1.248e-4
1.324,   1.249e-4
1.325,   1.248e-4
1.326,   1.254e-4
1.327,   1.259e-4
1.328,   1.259e-4
1.329,   1.274e-4
1.330,   1.272e-4
1.331,   1.268e-4
1.332,   1.278e-4
1.333,   1.284e-4
1.334,   1.290e-4
1.335,   1.285e-4
1.336,   1.290e-4
1.337,   1.296e-4
1.338,   1.295e-4
1.339,   1.306e-4
1.340,   1.313e-4
1.341,   1.313e-4
1.342,   1.320e-4
1.343,   1.322e-4
1.344,   1.330e-4
1.345,   1.334e-4
1.346,   1.336e-4
1.347,   1.346e-4
1.348,   1.351e-4
1.349,   1.347e-4
1.350,   1.368e-4
1.351,   1.363e-4
1.352,   1.363e-4
1.353,   1.371e-4
1.354,   1.375e-4
1.355,   1.378e-4
1.356,   1.383e-4
1.357,   1.382e-4
1.358,   1.402e-4
1.359,   1.403e-4
1.360,   1.408e-4
1.361,   1.416e-4
1.362,   1.414e-4
1.363,   1.429e-4
1.364,   1.436e-4
1.365,   1.445e-4
1.366,   1.446e-4
1.367,   1.454e-4
1.368,   1.468e-4
1.369,   1.478e-4
1.370,   1.474e-4
1.371,   1.483e-4
1.372,   1.494e-4
1.373,   1.499e-4
1.374,   1.513e-4
1.375,   1.526e-4
1.376,   1.542e-4
1.377,   1.552e-4
1.378,   1.553e-4
1.379,   1.556e-4
1.380,   1.569e-4
1.381,   1.579e-4
1.382,   1.593e-4
1.383,   1.599e-4
1.384,   1.620e-4
1.385,   1.630e-4
1.386,   1.632e-4
1.387,   1.650e-4
1.388,   1.657e-4
1.389,   1.670e-4
1.390,   1.685e-4
1.391,   1.694e-4
1.392,   1.718e-4
1.393,   1.733e-4
1.394,   1.741e-4
1.395,   1.762e-4
1.396,   1.782e-4
1.397,   1.801e-4
1.398,   1.827e-4
1.399,   1.834e-4
1.400,   1.863e-4
1.401,   1.879e-4
1.402,   1.898e-4
1.403,   1.931e-4
1.404,   1.946e-4
1.405,   1.975e-4
1.406,   1.998e-4
1.407,   2.028e-4
1.408,   2.057e-4
1.409,   2.078e-4
1.410,   2.111e-4
1.411,   2.146e-4
1.412,   2.188e-4
1.413,   2.226e-4
1.414,   2.254e-4
1.415,   2.301e-4
1.416,   2.344e-4
1.417,   2.388e-4
1.418,   2.430e-4
1.419,   2.476e-4
1.420,   2.526e-4
1.421,   2.591e-4
1.422,   2.656e-4
1.423,   2.717e-4
1.424,   2.754e-4
1.425,   2.831e-4
1.426,   2.918e-4
1.427,   2.990e-4
1.428,   3.082e-4
1.429,   3.143e-4
1.430,   3.251e-4
1.431,   3.360e-4
1.432,   3.461e-4
1.433,   3.540e-4
1.434,   3.647e-4
1.435,   3.783e-4
1.436,   3.920e-4
1.437,   4.051e-4
1.438,   4.166e-4
1.439,   4.315e-4
1.440,   4.500e-4
1.441,   4.664e-4
1.442,   4.832e-4
1.443,   4.985e-4
1.444,   5.186e-4
1.445,   5.423e-4
1.446,   5.634e-4
1.447,   5.851e-4
1.448,   6.054e-4
1.449,   6.310e-4
1.450,   6.614e-4
1.451,   6.870e-4
1.452,   7.143e-4
1.453,   7.414e-4
1.454,   7.745e-4
1.455,   8.121e-4
1.456,   8.456e-4
1.457,   8.797e-4
1.458,   9.140e-4
1.459,   9.545e-4
1.460,   1.000e-3
1.461,   1.040e-3
1.462,   1.083e-3
1.463,   1.126e-3
1.464,   1.180e-3
1.465,   1.233e-3
1.466,   1.285e-3
1.467,   1.334e-3
1.468,   1.389e-3
1.469,   1.448e-3
1.470,   1.511e-3
1.471,   1.573e-3
1.472,   1.632e-3
1.473,   1.700e-3
1.474,   1.768e-3
1.475,   1.837e-3
1.476,   1.908e-3
1.477,   1.969e-3
1.478,   2.052e-3
1.479,   2.134e-3
1.480,   2.218e-3
1.481,   2.295e-3
1.482,   2.364e-3
1.483,   2.458e-3
1.484,   2.559e-3
1.485,   2.649e-3
1.486,   2.738e-3
1.487,   2.819e-3
1.488,   2.930e-3
1.489,   3.037e-3
1.490,   3.116e-3
1.491,   3.218e-3
1.492,   3.308e-3
1.493,   3.442e-3
1.494,   3.562e-3
1.495,   3.673e-3
1.496,   3.772e-3
1.497,   3.863e-3
1.498,   3.980e-3
1.499,   4.120e-3
1.500,   4.231e-3
1.501,   4.313e-3
1.502,   4.428e-3
1.503,   4.563e-3
1.504,   4.733e-3
1.505,   4.856e-3
1.506,   4.952e-3
1.507,   5.069e-3
1.508,   5.217e-3
1.509,   5.348e-3
1.510,   5.469e-3
1.511,   5.572e-3
1.512,   5.676e-3
1.513,   5.807e-3
1.514,   5.928e-3
1.515,   6.043e-3
1.516,   6.139e-3
1.517,   6.273e-3
1.518,   6.418e-3
1.519,   6.587e-3
1.520,   6.711e-3
1.521,   6.805e-3
1.522,   6.915e-3
1.523,   7.089e-3
1.524,   7.258e-3
1.525,   7.367e-3
1.526,   7.397e-3
1.527,   7.536e-3
1.528,   7.672e-3
1.529,   7.756e-3
1.530,   7.852e-3
1.531,   7.912e-3
1.532,   8.081e-3
1.533,   8.280e-3
1.534,   8.425e-3
1.535,   8.487e-3
1.536,   8.505e-3
1.537,   8.586e-3
1.538,   8.744e-3
1.539,   8.919e-3
1.540,   8.965e-3
1.541,   9.020e-3
1.542,   9.184e-3
1.543,   9.341e-3
1.544,   9.477e-3
1.545,   9.525e-3
1.546,   9.596e-3
1.547,   9.726e-3
1.548,   9.852e-3
1.549,   9.890e-3
1.550,   9.866e-3
1.551,   9.910e-3
1.552,   9.969e-3
1.553,   9.989e-3
1.554,   9.995e-3
1.555,   9.983e-3
1.556,   1.003e-2
1.557,   1.007e-2
1.558,   1.007e-2
1.559,   1.007e-2
1.560,   1.007e-2
1.561,   1.007e-2
1.562,   1.007e-2
1.563,   1.007e-2
1.564,   1.007e-2
1.565,   1.007e-2
1.566,   1.007e-2
1.567,   1.007e-2
1.568,   1.007e-2
1.569,   1.007e-2
1.570,   1.007e-2