File: Experimental Records and Raw Data/batch5/final400/B5_BEST_400_#1_High_Quality(#28)-188mV.txt
May 31, 2023   16:52:31
Linear Sweep Voltammetry
File: d:\current work\al_oer\electrochemical test data\batch 5\400\B5_BEST_400_#1_High_Quality(#28)-188mV.txt
Data Source:  Experiment
Instrument Model:  CHI660E
Header:
Note:

Init E (V) = 0.909

Final E (V) = 1.486

Scan Rate (V/s) = 0.010
Sample Interval (V) = 0.001
Quiet Time (sec) = 2
Sensitivity (A/V) = 0.001
Comp R (ohm) = 5.5

Results:

Channel 1:

Potential/V, Current/A
0.909,   6.154e-4
0.910,   7.823e-4
0.911,   8.343e-4
0.912,   8.677e-4
0.913,   8.503e-4
0.914,   8.196e-4
0.915,   8.057e-4
0.916,   8.101e-4
0.917,   8.391e-4
0.918,   8.559e-4
0.919,   8.397e-4
0.920,   8.054e-4
0.921,   7.745e-4
0.922,   7.754e-4
0.923,   7.972e-4
0.924,   8.203e-4
0.925,   8.206e-4
0.926,   7.896e-4
0.927,   7.686e-4
0.928,   7.542e-4
0.929,   7.667e-4
0.930,   7.918e-4
0.931,   7.971e-4
0.932,   7.690e-4
0.933,   7.496e-4
0.934,   7.332e-4
0.935,   7.380e-4
0.936,   7.651e-4
0.937,   7.757e-4
0.938,   7.571e-4
0.939,   7.282e-4
0.940,   7.191e-4
0.941,   7.215e-4
0.942,   7.372e-4
0.943,   7.529e-4
0.944,   7.525e-4
0.945,   7.185e-4
0.946,   6.990e-4
0.947,   6.946e-4
0.948,   7.060e-4
0.949,   7.397e-4
0.950,   7.562e-4
0.951,   7.318e-4
0.952,   6.928e-4
0.953,   6.789e-4
0.954,   6.912e-4
0.955,   7.166e-4
0.956,   7.386e-4
0.957,   7.197e-4
0.958,   6.940e-4
0.959,   6.821e-4
0.960,   6.755e-4
0.961,   6.893e-4
0.962,   7.209e-4
0.963,   7.120e-4
0.964,   6.879e-4
0.965,   6.786e-4
0.966,   6.715e-4
0.967,   6.810e-4
0.968,   7.063e-4
0.969,   7.157e-4
0.970,   6.890e-4
0.971,   6.696e-4
0.972,   6.642e-4
0.973,   6.749e-4
0.974,   6.944e-4
0.975,   7.109e-4
0.976,   6.892e-4
0.977,   6.709e-4
0.978,   6.678e-4
0.979,   6.546e-4
0.980,   6.837e-4
0.981,   7.054e-4
0.982,   6.927e-4
0.983,   6.677e-4
0.984,   6.549e-4
0.985,   6.506e-4
0.986,   6.631e-4
0.987,   6.972e-4
0.988,   6.888e-4
0.989,   6.665e-4
0.990,   6.516e-4
0.991,   6.526e-4
0.992,   6.585e-4
0.993,   6.921e-4
0.994,   6.865e-4
0.995,   6.621e-4
0.996,   6.462e-4
0.997,   6.516e-4
0.998,   6.611e-4
0.999,   6.909e-4
1.000,   6.919e-4
1.001,   6.566e-4
1.002,   6.390e-4
1.003,   6.444e-4
1.004,   6.520e-4
1.005,   6.754e-4
1.006,   6.963e-4
1.007,   6.658e-4
1.008,   6.396e-4
1.009,   6.336e-4
1.010,   6.551e-4
1.011,   6.688e-4
1.012,   6.872e-4
1.013,   6.741e-4
1.014,   6.527e-4
1.015,   6.369e-4
1.016,   6.422e-4
1.017,   6.614e-4
1.018,   6.825e-4
1.019,   6.673e-4
1.020,   6.480e-4
1.021,   6.389e-4
1.022,   6.472e-4
1.023,   6.553e-4
1.024,   6.705e-4
1.025,   6.841e-4
1.026,   6.509e-4
1.027,   6.414e-4
1.028,   6.320e-4
1.029,   6.453e-4
1.030,   6.689e-4
1.031,   6.862e-4
1.032,   6.632e-4
1.033,   6.392e-4
1.034,   6.264e-4
1.035,   6.350e-4
1.036,   6.599e-4
1.037,   6.881e-4
1.038,   6.722e-4
1.039,   6.435e-4
1.040,   6.423e-4
1.041,   6.306e-4
1.042,   6.472e-4
1.043,   6.792e-4
1.044,   6.800e-4
1.045,   6.486e-4
1.046,   6.408e-4
1.047,   6.408e-4
1.048,   6.523e-4
1.049,   6.687e-4
1.050,   6.774e-4
1.051,   6.536e-4
1.052,   6.363e-4
1.053,   6.430e-4
1.054,   6.424e-4
1.055,   6.780e-4
1.056,   6.915e-4
1.057,   6.631e-4
1.058,   6.423e-4
1.059,   6.396e-4
1.060,   6.335e-4
1.061,   6.661e-4
1.062,   6.993e-4
1.063,   6.736e-4
1.064,   6.398e-4
1.065,   6.296e-4
1.066,   6.364e-4
1.067,   6.577e-4
1.068,   6.904e-4
1.069,   6.853e-4
1.070,   6.569e-4
1.071,   6.431e-4
1.072,   6.431e-4
1.073,   6.509e-4
1.074,   6.783e-4
1.075,   6.731e-4
1.076,   6.637e-4
1.077,   6.574e-4
1.078,   6.489e-4
1.079,   6.455e-4
1.080,   6.820e-4
1.081,   6.891e-4
1.082,   6.537e-4
1.083,   6.471e-4
1.084,   6.536e-4
1.085,   6.568e-4
1.086,   6.755e-4
1.087,   7.013e-4
1.088,   6.793e-4
1.089,   6.572e-4
1.090,   6.489e-4
1.091,   6.532e-4
1.092,   6.688e-4
1.093,   6.998e-4
1.094,   6.892e-4
1.095,   6.677e-4
1.096,   6.520e-4
1.097,   6.568e-4
1.098,   6.682e-4
1.099,   7.028e-4
1.100,   6.930e-4
1.101,   6.675e-4
1.102,   6.647e-4
1.103,   6.526e-4
1.104,   6.634e-4
1.105,   7.017e-4
1.106,   7.027e-4
1.107,   6.692e-4
1.108,   6.643e-4
1.109,   6.746e-4
1.110,   6.835e-4
1.111,   6.956e-4
1.112,   7.158e-4
1.113,   6.865e-4
1.114,   6.626e-4
1.115,   6.632e-4
1.116,   6.783e-4
1.117,   6.990e-4
1.118,   7.297e-4
1.119,   7.040e-4
1.120,   6.802e-4
1.121,   6.603e-4
1.122,   6.741e-4
1.123,   6.972e-4
1.124,   7.214e-4
1.125,   7.137e-4
1.126,   6.908e-4
1.127,   6.898e-4
1.128,   6.730e-4
1.129,   6.913e-4
1.130,   7.269e-4
1.131,   7.157e-4
1.132,   6.914e-4
1.133,   6.936e-4
1.134,   6.838e-4
1.135,   6.995e-4
1.136,   7.305e-4
1.137,   7.299e-4
1.138,   7.042e-4
1.139,   6.979e-4
1.140,   6.880e-4
1.141,   6.950e-4
1.142,   7.236e-4
1.143,   7.459e-4
1.144,   7.186e-4
1.145,   6.978e-4
1.146,   6.878e-4
1.147,   6.956e-4
1.148,   7.202e-4
1.149,   7.519e-4
1.150,   7.342e-4
1.151,   7.021e-4
1.152,   6.834e-4
1.153,   6.922e-4
1.154,   7.301e-4
1.155,   7.463e-4
1.156,   7.339e-4
1.157,   7.281e-4
1.158,   7.002e-4
1.159,   7.045e-4
1.160,   7.041e-4
1.161,   7.498e-4
1.162,   7.540e-4
1.163,   7.239e-4
1.164,   7.105e-4
1.165,   7.164e-4
1.166,   7.124e-4
1.167,   7.429e-4
1.168,   7.620e-4
1.169,   7.375e-4
1.170,   7.107e-4
1.171,   7.125e-4
1.172,   7.196e-4
1.173,   7.407e-4
1.174,   7.637e-4
1.175,   7.447e-4
1.176,   7.232e-4
1.177,   7.133e-4
1.178,   7.181e-4
1.179,   7.412e-4
1.180,   7.698e-4
1.181,   7.664e-4
1.182,   7.265e-4
1.183,   7.194e-4
1.184,   7.152e-4
1.185,   7.227e-4
1.186,   7.624e-4
1.187,   7.829e-4
1.188,   7.439e-4
1.189,   7.325e-4
1.190,   7.291e-4
1.191,   7.372e-4
1.192,   7.670e-4
1.193,   7.811e-4
1.194,   7.630e-4
1.195,   7.405e-4
1.196,   7.364e-4
1.197,   7.349e-4
1.198,   7.610e-4
1.199,   7.973e-4
1.200,   7.679e-4
1.201,   7.468e-4
1.202,   7.419e-4
1.203,   7.350e-4
1.204,   7.570e-4
1.205,   8.075e-4
1.206,   7.921e-4
1.207,   7.628e-4
1.208,   7.395e-4
1.209,   7.338e-4
1.210,   7.482e-4
1.211,   7.933e-4
1.212,   8.221e-4
1.213,   7.743e-4
1.214,   7.411e-4
1.215,   7.314e-4
1.216,   7.460e-4
1.217,   7.916e-4
1.218,   8.084e-4
1.219,   7.905e-4
1.220,   7.762e-4
1.221,   7.508e-4
1.222,   7.491e-4
1.223,   7.867e-4
1.224,   8.219e-4
1.225,   7.982e-4
1.226,   7.679e-4
1.227,   7.638e-4
1.228,   7.534e-4
1.229,   7.881e-4
1.230,   8.400e-4
1.231,   8.205e-4
1.232,   7.776e-4
1.233,   7.614e-4
1.234,   7.681e-4
1.235,   7.907e-4
1.236,   8.215e-4
1.237,   8.396e-4
1.238,   8.004e-4
1.239,   7.638e-4
1.240,   7.739e-4
1.241,   7.938e-4
1.242,   8.288e-4
1.243,   8.403e-4
1.244,   8.089e-4
1.245,   7.846e-4
1.246,   7.647e-4
1.247,   7.994e-4
1.248,   8.334e-4
1.249,   8.427e-4
1.250,   8.224e-4
1.251,   7.899e-4
1.252,   7.849e-4
1.253,   7.960e-4
1.254,   8.294e-4
1.255,   8.550e-4
1.256,   8.317e-4
1.257,   7.935e-4
1.258,   7.885e-4
1.259,   7.999e-4
1.260,   8.284e-4
1.261,   8.593e-4
1.262,   8.448e-4
1.263,   8.093e-4
1.264,   7.979e-4
1.265,   8.003e-4
1.266,   8.389e-4
1.267,   8.638e-4
1.268,   8.432e-4
1.269,   8.234e-4
1.270,   8.141e-4
1.271,   8.088e-4
1.272,   8.391e-4
1.273,   8.624e-4
1.274,   8.561e-4
1.275,   8.304e-4
1.276,   8.180e-4
1.277,   8.263e-4
1.278,   8.484e-4
1.279,   8.717e-4
1.280,   8.621e-4
1.281,   8.397e-4
1.282,   8.221e-4
1.283,   8.272e-4
1.284,   8.545e-4
1.285,   8.748e-4
1.286,   8.877e-4
1.287,   8.567e-4
1.288,   8.337e-4
1.289,   8.325e-4
1.290,   8.510e-4
1.291,   8.730e-4
1.292,   8.861e-4
1.293,   8.718e-4
1.294,   8.507e-4
1.295,   8.454e-4
1.296,   8.544e-4
1.297,   8.805e-4
1.298,   8.910e-4
1.299,   8.861e-4
1.300,   8.583e-4
1.301,   8.514e-4
1.302,   8.642e-4
1.303,   8.936e-4
1.304,   9.045e-4
1.305,   8.904e-4
1.306,   8.685e-4
1.307,   8.656e-4
1.308,   8.709e-4
1.309,   8.957e-4
1.310,   9.113e-4
1.311,   9.179e-4
1.312,   8.885e-4
1.313,   8.700e-4
1.314,   8.787e-4
1.315,   9.107e-4
1.316,   9.195e-4
1.317,   9.209e-4
1.318,   9.222e-4
1.319,   8.828e-4
1.320,   8.739e-4
1.321,   8.988e-4
1.322,   9.227e-4
1.323,   9.422e-4
1.324,   9.240e-4
1.325,   9.142e-4
1.326,   9.024e-4
1.327,   8.987e-4
1.328,   9.082e-4
1.329,   9.409e-4
1.330,   9.588e-4
1.331,   9.306e-4
1.332,   9.204e-4
1.333,   9.190e-4
1.334,   9.158e-4
1.335,   9.566e-4
1.336,   9.968e-4
1.337,   9.644e-4
1.338,   9.340e-4
1.339,   9.354e-4
1.340,   9.440e-4
1.341,   9.623e-4
1.342,   9.975e-4
1.343,   9.893e-4
1.344,   9.664e-4
1.345,   9.555e-4
1.346,   9.519e-4
1.347,   9.809e-4
1.348,   1.013e-3
1.349,   1.007e-3
1.350,   9.951e-4
1.351,   9.919e-4
1.352,   9.711e-4
1.353,   9.887e-4
1.354,   1.034e-3
1.355,   1.042e-3
1.356,   1.013e-3
1.357,   1.002e-3
1.358,   1.009e-3
1.359,   1.013e-3
1.360,   1.048e-3
1.361,   1.079e-3
1.362,   1.055e-3
1.363,   1.026e-3
1.364,   1.029e-3
1.365,   1.031e-3
1.366,   1.077e-3
1.367,   1.122e-3
1.368,   1.116e-3
1.369,   1.077e-3
1.370,   1.042e-3
1.371,   1.061e-3
1.372,   1.101e-3
1.373,   1.155e-3
1.374,   1.150e-3
1.375,   1.130e-3
1.376,   1.109e-3
1.377,   1.102e-3
1.378,   1.118e-3
1.379,   1.179e-3
1.380,   1.208e-3
1.381,   1.173e-3
1.382,   1.156e-3
1.383,   1.165e-3
1.384,   1.178e-3
1.385,   1.228e-3
1.386,   1.274e-3
1.387,   1.252e-3
1.388,   1.226e-3
1.389,   1.218e-3
1.390,   1.231e-3
1.391,   1.301e-3
1.392,   1.369e-3
1.393,   1.335e-3
1.394,   1.298e-3
1.395,   1.304e-3
1.396,   1.313e-3
1.397,   1.371e-3
1.398,   1.459e-3
1.399,   1.470e-3
1.400,   1.432e-3
1.401,   1.408e-3
1.402,   1.429e-3
1.403,   1.474e-3
1.404,   1.552e-3
1.405,   1.576e-3
1.406,   1.575e-3
1.407,   1.556e-3
1.408,   1.578e-3
1.409,   1.630e-3
1.410,   1.724e-3
1.411,   1.738e-3
1.412,   1.720e-3
1.413,   1.751e-3
1.414,   1.792e-3
1.415,   1.814e-3
1.416,   1.933e-3
1.417,   2.053e-3
1.418,   2.015e-3
1.419,   1.978e-3
1.420,   2.018e-3
1.421,   2.072e-3
1.422,   2.167e-3
1.423,   2.348e-3
1.424,   2.421e-3
1.425,   2.362e-3
1.426,   2.369e-3
1.427,   2.429e-3
1.428,   2.564e-3
1.429,   2.801e-3
1.430,   2.894e-3
1.431,   2.878e-3
1.432,   2.884e-3
1.433,   2.961e-3
1.434,   3.050e-3
1.435,   3.340e-3
1.436,   3.477e-3
1.437,   3.509e-3
1.438,   3.556e-3
1.439,   3.694e-3
1.440,   3.816e-3
1.441,   4.122e-3
1.442,   4.387e-3
1.443,   4.403e-3
1.444,   4.396e-3
1.445,   4.566e-3
1.446,   4.753e-3
1.447,   5.247e-3
1.448,   5.639e-3
1.449,   5.669e-3
1.450,   5.718e-3
1.451,   5.862e-3
1.452,   6.017e-3
1.453,   6.281e-3
1.454,   6.743e-3
1.455,   6.840e-3
1.456,   7.053e-3
1.457,   7.317e-3
1.458,   7.488e-3
1.459,   7.720e-3
1.460,   8.145e-3
1.461,   8.313e-3
1.462,   8.448e-3
1.463,   8.747e-3
1.464,   8.957e-3
1.465,   9.228e-3
1.466,   9.594e-3
1.467,   9.738e-3
1.468,   9.830e-3
1.469,   9.884e-3
1.470,   9.950e-3
1.471,   9.986e-3
1.472,   1.007e-2
1.473,   1.007e-2
1.474,   1.007e-2
1.475,   1.007e-2
1.476,   1.007e-2
1.477,   1.007e-2
1.478,   1.007e-2
1.479,   1.007e-2
1.480,   1.007e-2
1.481,   1.007e-2
1.482,   1.007e-2
1.483,   1.007e-2
1.484,   1.007e-2
1.485,   1.007e-2
1.486,   1.007e-2