File: Experimental Records and Raw Data/batch5/final400/B5_BEST_400_#1_High_Quality(#25)-193mV.txt
May 31, 2023   13:25:10
Linear Sweep Voltammetry
File: d:\current work\al_oer\electrochemical test data\batch 5\400\B5_BEST_400_#1_High_Quality(#25)-193mV.txt
Data Source:  Experiment
Instrument Model:  CHI660E
Header:
Note:

Init E (V) = 0.896

Final E (V) = 1.486

Scan Rate (V/s) = 0.010
Sample Interval (V) = 0.001
Quiet Time (sec) = 2
Sensitivity (A/V) = 0.001
Comp R (ohm) = 6.0

Results:

Channel 1:

Potential/V, Current/A
0.896,   3.707e-4
0.897,   4.293e-4
0.898,   4.378e-4
0.899,   4.395e-4
0.900,   4.418e-4
0.901,   4.425e-4
0.902,   4.384e-4
0.903,   4.406e-4
0.904,   4.285e-4
0.905,   4.256e-4
0.906,   4.265e-4
0.907,   4.241e-4
0.908,   4.167e-4
0.909,   4.166e-4
0.910,   4.173e-4
0.911,   4.138e-4
0.912,   4.125e-4
0.913,   4.101e-4
0.914,   4.019e-4
0.915,   3.993e-4
0.916,   4.005e-4
0.917,   3.977e-4
0.918,   3.929e-4
0.919,   3.928e-4
0.920,   3.918e-4
0.921,   3.899e-4
0.922,   3.902e-4
0.923,   3.828e-4
0.924,   3.761e-4
0.925,   3.799e-4
0.926,   3.799e-4
0.927,   3.778e-4
0.928,   3.730e-4
0.929,   3.744e-4
0.930,   3.731e-4
0.931,   3.716e-4
0.932,   3.680e-4
0.933,   3.600e-4
0.934,   3.590e-4
0.935,   3.648e-4
0.936,   3.648e-4
0.937,   3.581e-4
0.938,   3.608e-4
0.939,   3.578e-4
0.940,   3.568e-4
0.941,   3.536e-4
0.942,   3.499e-4
0.943,   3.471e-4
0.944,   3.487e-4
0.945,   3.503e-4
0.946,   3.471e-4
0.947,   3.466e-4
0.948,   3.454e-4
0.949,   3.446e-4
0.950,   3.457e-4
0.951,   3.425e-4
0.952,   3.363e-4
0.953,   3.347e-4
0.954,   3.379e-4
0.955,   3.385e-4
0.956,   3.362e-4
0.957,   3.367e-4
0.958,   3.357e-4
0.959,   3.348e-4
0.960,   3.342e-4
0.961,   3.303e-4
0.962,   3.262e-4
0.963,   3.264e-4
0.964,   3.276e-4
0.965,   3.287e-4
0.966,   3.281e-4
0.967,   3.281e-4
0.968,   3.286e-4
0.969,   3.277e-4
0.970,   3.255e-4
0.971,   3.217e-4
0.972,   3.169e-4
0.973,   3.216e-4
0.974,   3.220e-4
0.975,   3.199e-4
0.976,   3.207e-4
0.977,   3.208e-4
0.978,   3.205e-4
0.979,   3.204e-4
0.980,   3.152e-4
0.981,   3.120e-4
0.982,   3.147e-4
0.983,   3.162e-4
0.984,   3.143e-4
0.985,   3.151e-4
0.986,   3.161e-4
0.987,   3.148e-4
0.988,   3.184e-4
0.989,   3.125e-4
0.990,   3.076e-4
0.991,   3.074e-4
0.992,   3.120e-4
0.993,   3.117e-4
0.994,   3.118e-4
0.995,   3.093e-4
0.996,   3.118e-4
0.997,   3.116e-4
0.998,   3.104e-4
0.999,   3.041e-4
1.000,   3.024e-4
1.001,   3.057e-4
1.002,   3.060e-4
1.003,   3.043e-4
1.004,   3.050e-4
1.005,   3.061e-4
1.006,   3.074e-4
1.007,   3.086e-4
1.008,   3.060e-4
1.009,   3.004e-4
1.010,   2.994e-4
1.011,   3.054e-4
1.012,   3.043e-4
1.013,   3.021e-4
1.014,   3.039e-4
1.015,   3.026e-4
1.016,   3.043e-4
1.017,   3.053e-4
1.018,   2.989e-4
1.019,   2.957e-4
1.020,   3.001e-4
1.021,   3.019e-4
1.022,   3.012e-4
1.023,   3.003e-4
1.024,   3.009e-4
1.025,   3.003e-4
1.026,   3.012e-4
1.027,   2.991e-4
1.028,   2.955e-4
1.029,   2.959e-4
1.030,   3.006e-4
1.031,   2.996e-4
1.032,   2.977e-4
1.033,   2.980e-4
1.034,   2.990e-4
1.035,   2.997e-4
1.036,   3.008e-4
1.037,   2.968e-4
1.038,   2.929e-4
1.039,   2.957e-4
1.040,   3.006e-4
1.041,   2.975e-4
1.042,   2.951e-4
1.043,   2.960e-4
1.044,   2.999e-4
1.045,   3.005e-4
1.046,   2.986e-4
1.047,   2.931e-4
1.048,   2.930e-4
1.049,   2.982e-4
1.050,   2.977e-4
1.051,   2.965e-4
1.052,   2.980e-4
1.053,   2.961e-4
1.054,   3.002e-4
1.055,   3.004e-4
1.056,   2.978e-4
1.057,   2.928e-4
1.058,   2.937e-4
1.059,   2.999e-4
1.060,   2.948e-4
1.061,   2.965e-4
1.062,   2.996e-4
1.063,   2.982e-4
1.064,   3.009e-4
1.065,   2.986e-4
1.066,   2.934e-4
1.067,   2.942e-4
1.068,   2.985e-4
1.069,   3.008e-4
1.070,   2.992e-4
1.071,   2.975e-4
1.072,   2.988e-4
1.073,   3.000e-4
1.074,   3.022e-4
1.075,   2.994e-4
1.076,   2.944e-4
1.077,   2.979e-4
1.078,   3.030e-4
1.079,   2.996e-4
1.080,   3.012e-4
1.081,   3.016e-4
1.082,   3.025e-4
1.083,   3.033e-4
1.084,   3.041e-4
1.085,   2.982e-4
1.086,   2.945e-4
1.087,   3.030e-4
1.088,   3.054e-4
1.089,   3.029e-4
1.090,   3.029e-4
1.091,   3.046e-4
1.092,   3.032e-4
1.093,   3.070e-4
1.094,   3.050e-4
1.095,   3.008e-4
1.096,   3.027e-4
1.097,   3.082e-4
1.098,   3.065e-4
1.099,   3.048e-4
1.100,   3.069e-4
1.101,   3.090e-4
1.102,   3.105e-4
1.103,   3.089e-4
1.104,   3.045e-4
1.105,   3.041e-4
1.106,   3.118e-4
1.107,   3.133e-4
1.108,   3.118e-4
1.109,   3.091e-4
1.110,   3.117e-4
1.111,   3.108e-4
1.112,   3.156e-4
1.113,   3.114e-4
1.114,   3.093e-4
1.115,   3.117e-4
1.116,   3.182e-4
1.117,   3.190e-4
1.118,   3.152e-4
1.119,   3.135e-4
1.120,   3.167e-4
1.121,   3.193e-4
1.122,   3.200e-4
1.123,   3.174e-4
1.124,   3.124e-4
1.125,   3.183e-4
1.126,   3.237e-4
1.127,   3.180e-4
1.128,   3.202e-4
1.129,   3.244e-4
1.130,   3.250e-4
1.131,   3.264e-4
1.132,   3.232e-4
1.133,   3.202e-4
1.134,   3.214e-4
1.135,   3.300e-4
1.136,   3.276e-4
1.137,   3.262e-4
1.138,   3.270e-4
1.139,   3.293e-4
1.140,   3.307e-4
1.141,   3.303e-4
1.142,   3.280e-4
1.143,   3.255e-4
1.144,   3.307e-4
1.145,   3.359e-4
1.146,   3.325e-4
1.147,   3.326e-4
1.148,   3.346e-4
1.149,   3.367e-4
1.150,   3.374e-4
1.151,   3.342e-4
1.152,   3.322e-4
1.153,   3.326e-4
1.154,   3.384e-4
1.155,   3.411e-4
1.156,   3.375e-4
1.157,   3.396e-4
1.158,   3.412e-4
1.159,   3.429e-4
1.160,   3.420e-4
1.161,   3.404e-4
1.162,   3.396e-4
1.163,   3.429e-4
1.164,   3.450e-4
1.165,   3.417e-4
1.166,   3.445e-4
1.167,   3.465e-4
1.168,   3.506e-4
1.169,   3.474e-4
1.170,   3.476e-4
1.171,   3.427e-4
1.172,   3.429e-4
1.173,   3.515e-4
1.174,   3.526e-4
1.175,   3.512e-4
1.176,   3.517e-4
1.177,   3.556e-4
1.178,   3.546e-4
1.179,   3.523e-4
1.180,   3.504e-4
1.181,   3.503e-4
1.182,   3.534e-4
1.183,   3.584e-4
1.184,   3.601e-4
1.185,   3.587e-4
1.186,   3.594e-4
1.187,   3.607e-4
1.188,   3.611e-4
1.189,   3.598e-4
1.190,   3.599e-4
1.191,   3.570e-4
1.192,   3.643e-4
1.193,   3.669e-4
1.194,   3.673e-4
1.195,   3.655e-4
1.196,   3.675e-4
1.197,   3.691e-4
1.198,   3.701e-4
1.199,   3.713e-4
1.200,   3.690e-4
1.201,   3.702e-4
1.202,   3.766e-4
1.203,   3.774e-4
1.204,   3.728e-4
1.205,   3.735e-4
1.206,   3.763e-4
1.207,   3.789e-4
1.208,   3.805e-4
1.209,   3.786e-4
1.210,   3.733e-4
1.211,   3.808e-4
1.212,   3.922e-4
1.213,   3.870e-4
1.214,   3.829e-4
1.215,   3.855e-4
1.216,   3.878e-4
1.217,   3.908e-4
1.218,   3.887e-4
1.219,   3.865e-4
1.220,   3.878e-4
1.221,   3.938e-4
1.222,   3.965e-4
1.223,   3.967e-4
1.224,   3.983e-4
1.225,   4.014e-4
1.226,   4.033e-4
1.227,   4.038e-4
1.228,   3.960e-4
1.229,   3.992e-4
1.230,   3.992e-4
1.231,   4.050e-4
1.232,   4.114e-4
1.233,   4.085e-4
1.234,   4.101e-4
1.235,   4.124e-4
1.236,   4.169e-4
1.237,   4.136e-4
1.238,   4.095e-4
1.239,   4.123e-4
1.240,   4.205e-4
1.241,   4.239e-4
1.242,   4.216e-4
1.243,   4.248e-4
1.244,   4.239e-4
1.245,   4.299e-4
1.246,   4.316e-4
1.247,   4.254e-4
1.248,   4.270e-4
1.249,   4.267e-4
1.250,   4.350e-4
1.251,   4.382e-4
1.252,   4.349e-4
1.253,   4.388e-4
1.254,   4.428e-4
1.255,   4.468e-4
1.256,   4.444e-4
1.257,   4.386e-4
1.258,   4.418e-4
1.259,   4.489e-4
1.260,   4.515e-4
1.261,   4.499e-4
1.262,   4.544e-4
1.263,   4.557e-4
1.264,   4.623e-4
1.265,   4.625e-4
1.266,   4.587e-4
1.267,   4.564e-4
1.268,   4.606e-4
1.269,   4.644e-4
1.270,   4.707e-4
1.271,   4.709e-4
1.272,   4.724e-4
1.273,   4.809e-4
1.274,   4.797e-4
1.275,   4.779e-4
1.276,   4.721e-4
1.277,   4.743e-4
1.278,   4.821e-4
1.279,   4.875e-4
1.280,   4.890e-4
1.281,   4.906e-4
1.282,   4.942e-4
1.283,   5.001e-4
1.284,   4.990e-4
1.285,   4.942e-4
1.286,   4.917e-4
1.287,   4.986e-4
1.288,   5.026e-4
1.289,   5.112e-4
1.290,   5.108e-4
1.291,   5.101e-4
1.292,   5.128e-4
1.293,   5.208e-4
1.294,   5.175e-4
1.295,   5.124e-4
1.296,   5.165e-4
1.297,   5.196e-4
1.298,   5.290e-4
1.299,   5.326e-4
1.300,   5.352e-4
1.301,   5.380e-4
1.302,   5.452e-4
1.303,   5.488e-4
1.304,   5.393e-4
1.305,   5.346e-4
1.306,   5.387e-4
1.307,   5.471e-4
1.308,   5.555e-4
1.309,   5.570e-4
1.310,   5.583e-4
1.311,   5.663e-4
1.312,   5.748e-4
1.313,   5.666e-4
1.314,   5.609e-4
1.315,   5.636e-4
1.316,   5.711e-4
1.317,   5.767e-4
1.318,   5.816e-4
1.319,   5.829e-4
1.320,   5.905e-4
1.321,   5.980e-4
1.322,   5.981e-4
1.323,   5.949e-4
1.324,   5.887e-4
1.325,   5.915e-4
1.326,   6.057e-4
1.327,   6.134e-4
1.328,   6.158e-4
1.329,   6.198e-4
1.330,   6.203e-4
1.331,   6.315e-4
1.332,   6.326e-4
1.333,   6.213e-4
1.334,   6.192e-4
1.335,   6.304e-4
1.336,   6.424e-4
1.337,   6.448e-4
1.338,   6.497e-4
1.339,   6.568e-4
1.340,   6.593e-4
1.341,   6.698e-4
1.342,   6.633e-4
1.343,   6.585e-4
1.344,   6.630e-4
1.345,   6.751e-4
1.346,   6.835e-4
1.347,   6.850e-4
1.348,   6.926e-4
1.349,   6.953e-4
1.350,   7.064e-4
1.351,   7.079e-4
1.352,   7.020e-4
1.353,   7.076e-4
1.354,   7.143e-4
1.355,   7.222e-4
1.356,   7.332e-4
1.357,   7.324e-4
1.358,   7.418e-4
1.359,   7.500e-4
1.360,   7.569e-4
1.361,   7.507e-4
1.362,   7.524e-4
1.363,   7.546e-4
1.364,   7.653e-4
1.365,   7.787e-4
1.366,   7.962e-4
1.367,   7.995e-4
1.368,   8.064e-4
1.369,   8.156e-4
1.370,   8.189e-4
1.371,   8.108e-4
1.372,   8.132e-4
1.373,   8.256e-4
1.374,   8.377e-4
1.375,   8.504e-4
1.376,   8.600e-4
1.377,   8.689e-4
1.378,   8.708e-4
1.379,   8.958e-4
1.380,   9.005e-4
1.381,   8.923e-4
1.382,   8.900e-4
1.383,   9.109e-4
1.384,   9.362e-4
1.385,   9.405e-4
1.386,   9.576e-4
1.387,   9.634e-4
1.388,   9.795e-4
1.389,   9.990e-4
1.390,   9.929e-4
1.391,   9.851e-4
1.392,   1.013e-3
1.393,   1.039e-3
1.394,   1.052e-3
1.395,   1.071e-3
1.396,   1.088e-3
1.397,   1.097e-3
1.398,   1.117e-3
1.399,   1.134e-3
1.400,   1.153e-3
1.401,   1.146e-3
1.402,   1.180e-3
1.403,   1.203e-3
1.404,   1.235e-3
1.405,   1.243e-3
1.406,   1.270e-3
1.407,   1.318e-3
1.408,   1.344e-3
1.409,   1.361e-3
1.410,   1.376e-3
1.411,   1.410e-3
1.412,   1.429e-3
1.413,   1.459e-3
1.414,   1.496e-3
1.415,   1.548e-3
1.416,   1.598e-3
1.417,   1.666e-3
1.418,   1.700e-3
1.419,   1.719e-3
1.420,   1.757e-3
1.421,   1.809e-3
1.422,   1.848e-3
1.423,   1.913e-3
1.424,   2.002e-3
1.425,   2.073e-3
1.426,   2.149e-3
1.427,   2.227e-3
1.428,   2.266e-3
1.429,   2.313e-3
1.430,   2.421e-3
1.431,   2.505e-3
1.432,   2.598e-3
1.433,   2.696e-3
1.434,   2.790e-3
1.435,   2.925e-3
1.436,   3.057e-3
1.437,   3.186e-3
1.438,   3.242e-3
1.439,   3.345e-3
1.440,   3.462e-3
1.441,   3.609e-3
1.442,   3.757e-3
1.443,   3.907e-3
1.444,   4.144e-3
1.445,   4.285e-3
1.446,   4.452e-3
1.447,   4.525e-3
1.448,   4.665e-3
1.449,   4.862e-3
1.450,   5.060e-3
1.451,   5.327e-3
1.452,   5.563e-3
1.453,   5.735e-3
1.454,   6.044e-3
1.455,   6.378e-3
1.456,   6.629e-3
1.457,   6.796e-3
1.458,   7.011e-3
1.459,   7.109e-3
1.460,   7.316e-3
1.461,   7.709e-3
1.462,   8.112e-3
1.463,   8.463e-3
1.464,   8.778e-3
1.465,   9.070e-3
1.466,   9.104e-3
1.467,   9.112e-3
1.468,   9.283e-3
1.469,   9.513e-3
1.470,   9.651e-3
1.471,   9.775e-3
1.472,   1.001e-2
1.473,   1.004e-2
1.474,   1.006e-2
1.475,   1.007e-2
1.476,   1.007e-2
1.477,   1.007e-2
1.478,   1.007e-2
1.479,   1.007e-2
1.480,   1.007e-2
1.481,   1.007e-2
1.482,   1.007e-2
1.483,   1.007e-2
1.484,   1.007e-2
1.485,   1.007e-2
1.486,   1.007e-2