File: Experimental Records and Raw Data/batch5/final400/B5_BEST_400_#1_Full(#2)-190mV.txt
May 30, 2023   22:13:25
Linear Sweep Voltammetry
File: d:\current work\al_oer\electrochemical test data\batch 5\400\B5_BEST_400_#1_Full(#2)-190mV.txt
Data Source:  Experiment
Instrument Model:  CHI660E
Header:
Note:

Init E (V) = 0.899

Final E (V) = 1.495

Scan Rate (V/s) = 0.010
Sample Interval (V) = 0.001
Quiet Time (sec) = 2
Sensitivity (A/V) = 0.001
Comp R (ohm) = 5.0

Results:

Channel 1:

Potential/V, Current/A
0.899,   4.252e-4
0.900,   5.575e-4
0.901,   5.634e-4
0.902,   5.467e-4
0.903,   5.629e-4
0.904,   5.464e-4
0.905,   5.439e-4
0.906,   5.439e-4
0.907,   5.278e-4
0.908,   5.364e-4
0.909,   5.271e-4
0.910,   5.208e-4
0.911,   5.229e-4
0.912,   5.126e-4
0.913,   5.165e-4
0.914,   5.094e-4
0.915,   4.993e-4
0.916,   5.014e-4
0.917,   4.954e-4
0.918,   4.943e-4
0.919,   4.984e-4
0.920,   4.848e-4
0.921,   4.897e-4
0.922,   4.863e-4
0.923,   4.774e-4
0.924,   4.803e-4
0.925,   4.762e-4
0.926,   4.752e-4
0.927,   4.751e-4
0.928,   4.678e-4
0.929,   4.669e-4
0.930,   4.703e-4
0.931,   4.668e-4
0.932,   4.609e-4
0.933,   4.585e-4
0.934,   4.625e-4
0.935,   4.600e-4
0.936,   4.562e-4
0.937,   4.537e-4
0.938,   4.547e-4
0.939,   4.492e-4
0.940,   4.511e-4
0.941,   4.469e-4
0.942,   4.530e-4
0.943,   4.490e-4
0.944,   4.445e-4
0.945,   4.457e-4
0.946,   4.455e-4
0.947,   4.460e-4
0.948,   4.342e-4
0.949,   4.417e-4
0.950,   4.380e-4
0.951,   4.356e-4
0.952,   4.367e-4
0.953,   4.347e-4
0.954,   4.355e-4
0.955,   4.349e-4
0.956,   4.383e-4
0.957,   4.276e-4
0.958,   4.351e-4
0.959,   4.300e-4
0.960,   4.294e-4
0.961,   4.285e-4
0.962,   4.290e-4
0.963,   4.286e-4
0.964,   4.289e-4
0.965,   4.307e-4
0.966,   4.243e-4
0.967,   4.277e-4
0.968,   4.224e-4
0.969,   4.264e-4
0.970,   4.238e-4
0.971,   4.226e-4
0.972,   4.252e-4
0.973,   4.186e-4
0.974,   4.241e-4
0.975,   4.230e-4
0.976,   4.214e-4
0.977,   4.213e-4
0.978,   4.236e-4
0.979,   4.181e-4
0.980,   4.192e-4
0.981,   4.165e-4
0.982,   4.227e-4
0.983,   4.176e-4
0.984,   4.191e-4
0.985,   4.255e-4
0.986,   4.078e-4
0.987,   4.195e-4
0.988,   4.172e-4
0.989,   4.129e-4
0.990,   4.240e-4
0.991,   4.122e-4
0.992,   4.118e-4
0.993,   4.179e-4
0.994,   4.126e-4
0.995,   4.217e-4
0.996,   4.139e-4
0.997,   4.111e-4
0.998,   4.167e-4
0.999,   4.087e-4
1.000,   4.133e-4
1.001,   4.223e-4
1.002,   4.105e-4
1.003,   4.201e-4
1.004,   4.100e-4
1.005,   4.122e-4
1.006,   4.173e-4
1.007,   4.097e-4
1.008,   4.146e-4
1.009,   4.129e-4
1.010,   4.095e-4
1.011,   4.195e-4
1.012,   4.062e-4
1.013,   4.075e-4
1.014,   4.178e-4
1.015,   4.057e-4
1.016,   4.172e-4
1.017,   4.128e-4
1.018,   4.071e-4
1.019,   4.202e-4
1.020,   4.079e-4
1.021,   4.122e-4
1.022,   4.134e-4
1.023,   4.158e-4
1.024,   4.108e-4
1.025,   4.111e-4
1.026,   4.108e-4
1.027,   4.196e-4
1.028,   4.077e-4
1.029,   4.192e-4
1.030,   4.157e-4
1.031,   4.072e-4
1.032,   4.125e-4
1.033,   4.111e-4
1.034,   4.123e-4
1.035,   4.140e-4
1.036,   4.085e-4
1.037,   4.164e-4
1.038,   4.154e-4
1.039,   4.082e-4
1.040,   4.149e-4
1.041,   4.139e-4
1.042,   4.144e-4
1.043,   4.184e-4
1.044,   4.089e-4
1.045,   4.202e-4
1.046,   4.141e-4
1.047,   4.114e-4
1.048,   4.196e-4
1.049,   4.147e-4
1.050,   4.119e-4
1.051,   4.177e-4
1.052,   4.126e-4
1.053,   4.173e-4
1.054,   4.173e-4
1.055,   4.174e-4
1.056,   4.195e-4
1.057,   4.155e-4
1.058,   4.190e-4
1.059,   4.194e-4
1.060,   4.127e-4
1.061,   4.237e-4
1.062,   4.153e-4
1.063,   4.205e-4
1.064,   4.211e-4
1.065,   4.139e-4
1.066,   4.275e-4
1.067,   4.203e-4
1.068,   4.147e-4
1.069,   4.305e-4
1.070,   4.156e-4
1.071,   4.234e-4
1.072,   4.262e-4
1.073,   4.181e-4
1.074,   4.322e-4
1.075,   4.246e-4
1.076,   4.153e-4
1.077,   4.252e-4
1.078,   4.228e-4
1.079,   4.235e-4
1.080,   4.266e-4
1.081,   4.275e-4
1.082,   4.258e-4
1.083,   4.262e-4
1.084,   4.232e-4
1.085,   4.257e-4
1.086,   4.278e-4
1.087,   4.288e-4
1.088,   4.281e-4
1.089,   4.306e-4
1.090,   4.293e-4
1.091,   4.306e-4
1.092,   4.302e-4
1.093,   4.299e-4
1.094,   4.306e-4
1.095,   4.343e-4
1.096,   4.316e-4
1.097,   4.293e-4
1.098,   4.335e-4
1.099,   4.352e-4
1.100,   4.341e-4
1.101,   4.291e-4
1.102,   4.296e-4
1.103,   4.332e-4
1.104,   4.350e-4
1.105,   4.363e-4
1.106,   4.396e-4
1.107,   4.359e-4
1.108,   4.407e-4
1.109,   4.326e-4
1.110,   4.386e-4
1.111,   4.397e-4
1.112,   4.401e-4
1.113,   4.436e-4
1.114,   4.369e-4
1.115,   4.434e-4
1.116,   4.407e-4
1.117,   4.411e-4
1.118,   4.416e-4
1.119,   4.436e-4
1.120,   4.419e-4
1.121,   4.441e-4
1.122,   4.418e-4
1.123,   4.393e-4
1.124,   4.424e-4
1.125,   4.444e-4
1.126,   4.452e-4
1.127,   4.469e-4
1.128,   4.438e-4
1.129,   4.453e-4
1.130,   4.465e-4
1.131,   4.485e-4
1.132,   4.514e-4
1.133,   4.477e-4
1.134,   4.509e-4
1.135,   4.499e-4
1.136,   4.511e-4
1.137,   4.505e-4
1.138,   4.511e-4
1.139,   4.502e-4
1.140,   4.487e-4
1.141,   4.532e-4
1.142,   4.473e-4
1.143,   4.504e-4
1.144,   4.569e-4
1.145,   4.546e-4
1.146,   4.525e-4
1.147,   4.569e-4
1.148,   4.520e-4
1.149,   4.557e-4
1.150,   4.588e-4
1.151,   4.592e-4
1.152,   4.566e-4
1.153,   4.564e-4
1.154,   4.557e-4
1.155,   4.569e-4
1.156,   4.572e-4
1.157,   4.599e-4
1.158,   4.639e-4
1.159,   4.640e-4
1.160,   4.625e-4
1.161,   4.603e-4
1.162,   4.614e-4
1.163,   4.644e-4
1.164,   4.620e-4
1.165,   4.637e-4
1.166,   4.678e-4
1.167,   4.575e-4
1.168,   4.617e-4
1.169,   4.637e-4
1.170,   4.637e-4
1.171,   4.669e-4
1.172,   4.702e-4
1.173,   4.677e-4
1.174,   4.723e-4
1.175,   4.715e-4
1.176,   4.653e-4
1.177,   4.645e-4
1.178,   4.727e-4
1.179,   4.726e-4
1.180,   4.662e-4
1.181,   4.690e-4
1.182,   4.721e-4
1.183,   4.720e-4
1.184,   4.712e-4
1.185,   4.704e-4
1.186,   4.770e-4
1.187,   4.711e-4
1.188,   4.755e-4
1.189,   4.762e-4
1.190,   4.740e-4
1.191,   4.743e-4
1.192,   4.726e-4
1.193,   4.787e-4
1.194,   4.712e-4
1.195,   4.782e-4
1.196,   4.788e-4
1.197,   4.817e-4
1.198,   4.795e-4
1.199,   4.758e-4
1.200,   4.803e-4
1.201,   4.741e-4
1.202,   4.802e-4
1.203,   4.833e-4
1.204,   4.852e-4
1.205,   4.817e-4
1.206,   4.822e-4
1.207,   4.829e-4
1.208,   4.821e-4
1.209,   4.820e-4
1.210,   4.814e-4
1.211,   4.880e-4
1.212,   4.870e-4
1.213,   4.834e-4
1.214,   4.855e-4
1.215,   4.848e-4
1.216,   4.892e-4
1.217,   4.845e-4
1.218,   4.859e-4
1.219,   4.898e-4
1.220,   4.864e-4
1.221,   4.895e-4
1.222,   4.907e-4
1.223,   4.843e-4
1.224,   4.911e-4
1.225,   4.909e-4
1.226,   4.871e-4
1.227,   4.952e-4
1.228,   4.974e-4
1.229,   4.934e-4
1.230,   4.989e-4
1.231,   4.937e-4
1.232,   4.952e-4
1.233,   4.963e-4
1.234,   4.945e-4
1.235,   4.941e-4
1.236,   4.924e-4
1.237,   4.935e-4
1.238,   4.971e-4
1.239,   4.969e-4
1.240,   4.941e-4
1.241,   4.979e-4
1.242,   4.966e-4
1.243,   4.963e-4
1.244,   4.974e-4
1.245,   4.997e-4
1.246,   4.954e-4
1.247,   5.024e-4
1.248,   5.013e-4
1.249,   5.005e-4
1.250,   5.018e-4
1.251,   5.069e-4
1.252,   5.013e-4
1.253,   5.026e-4
1.254,   5.061e-4
1.255,   5.028e-4
1.256,   5.065e-4
1.257,   5.048e-4
1.258,   5.084e-4
1.259,   5.032e-4
1.260,   5.076e-4
1.261,   5.067e-4
1.262,   5.101e-4
1.263,   5.025e-4
1.264,   5.061e-4
1.265,   5.088e-4
1.266,   5.127e-4
1.267,   5.020e-4
1.268,   5.001e-4
1.269,   5.132e-4
1.270,   5.117e-4
1.271,   5.160e-4
1.272,   5.129e-4
1.273,   5.173e-4
1.274,   5.150e-4
1.275,   5.142e-4
1.276,   5.122e-4
1.277,   5.173e-4
1.278,   5.174e-4
1.279,   5.165e-4
1.280,   5.181e-4
1.281,   5.180e-4
1.282,   5.170e-4
1.283,   5.193e-4
1.284,   5.183e-4
1.285,   5.192e-4
1.286,   5.199e-4
1.287,   5.171e-4
1.288,   5.175e-4
1.289,   5.188e-4
1.290,   5.206e-4
1.291,   5.248e-4
1.292,   5.258e-4
1.293,   5.235e-4
1.294,   5.165e-4
1.295,   5.291e-4
1.296,   5.219e-4
1.297,   5.187e-4
1.298,   5.290e-4
1.299,   5.304e-4
1.300,   5.281e-4
1.301,   5.286e-4
1.302,   5.279e-4
1.303,   5.363e-4
1.304,   5.310e-4
1.305,   5.301e-4
1.306,   5.310e-4
1.307,   5.336e-4
1.308,   5.306e-4
1.309,   5.327e-4
1.310,   5.377e-4
1.311,   5.374e-4
1.312,   5.418e-4
1.313,   5.408e-4
1.314,   5.432e-4
1.315,   5.384e-4
1.316,   5.358e-4
1.317,   5.384e-4
1.318,   5.417e-4
1.319,   5.400e-4
1.320,   5.437e-4
1.321,   5.478e-4
1.322,   5.439e-4
1.323,   5.494e-4
1.324,   5.481e-4
1.325,   5.520e-4
1.326,   5.485e-4
1.327,   5.461e-4
1.328,   5.553e-4
1.329,   5.509e-4
1.330,   5.564e-4
1.331,   5.621e-4
1.332,   5.576e-4
1.333,   5.551e-4
1.334,   5.588e-4
1.335,   5.627e-4
1.336,   5.683e-4
1.337,   5.696e-4
1.338,   5.709e-4
1.339,   5.665e-4
1.340,   5.716e-4
1.341,   5.719e-4
1.342,   5.836e-4
1.343,   5.737e-4
1.344,   5.796e-4
1.345,   5.819e-4
1.346,   5.803e-4
1.347,   5.814e-4
1.348,   5.869e-4
1.349,   5.864e-4
1.350,   5.908e-4
1.351,   5.918e-4
1.352,   5.971e-4
1.353,   6.067e-4
1.354,   6.025e-4
1.355,   6.015e-4
1.356,   6.077e-4
1.357,   6.090e-4
1.358,   6.153e-4
1.359,   6.114e-4
1.360,   6.177e-4
1.361,   6.178e-4
1.362,   6.310e-4
1.363,   6.291e-4
1.364,   6.258e-4
1.365,   6.328e-4
1.366,   6.468e-4
1.367,   6.484e-4
1.368,   6.525e-4
1.369,   6.506e-4
1.370,   6.538e-4
1.371,   6.607e-4
1.372,   6.698e-4
1.373,   6.779e-4
1.374,   6.831e-4
1.375,   6.853e-4
1.376,   6.915e-4
1.377,   6.932e-4
1.378,   7.059e-4
1.379,   7.133e-4
1.380,   7.158e-4
1.381,   7.331e-4
1.382,   7.459e-4
1.383,   7.442e-4
1.384,   7.545e-4
1.385,   7.631e-4
1.386,   7.725e-4
1.387,   7.743e-4
1.388,   7.923e-4
1.389,   8.112e-4
1.390,   8.227e-4
1.391,   8.388e-4
1.392,   8.509e-4
1.393,   8.529e-4
1.394,   8.765e-4
1.395,   9.042e-4
1.396,   9.279e-4
1.397,   9.348e-4
1.398,   9.481e-4
1.399,   9.720e-4
1.400,   9.946e-4
1.401,   1.012e-3
1.402,   1.046e-3
1.403,   1.076e-3
1.404,   1.109e-3
1.405,   1.135e-3
1.406,   1.155e-3
1.407,   1.184e-3
1.408,   1.219e-3
1.409,   1.264e-3
1.410,   1.311e-3
1.411,   1.362e-3
1.412,   1.408e-3
1.413,   1.452e-3
1.414,   1.492e-3
1.415,   1.539e-3
1.416,   1.597e-3
1.417,   1.679e-3
1.418,   1.753e-3
1.419,   1.830e-3
1.420,   1.894e-3
1.421,   1.969e-3
1.422,   2.044e-3
1.423,   2.128e-3
1.424,   2.235e-3
1.425,   2.341e-3
1.426,   2.461e-3
1.427,   2.566e-3
1.428,   2.685e-3
1.429,   2.797e-3
1.430,   2.907e-3
1.431,   3.067e-3
1.432,   3.208e-3
1.433,   3.400e-3
1.434,   3.559e-3
1.435,   3.739e-3
1.436,   3.919e-3
1.437,   4.055e-3
1.438,   4.198e-3
1.439,   4.468e-3
1.440,   4.703e-3
1.441,   4.893e-3
1.442,   5.095e-3
1.443,   5.317e-3
1.444,   5.541e-3
1.445,   5.838e-3
1.446,   6.013e-3
1.447,   6.300e-3
1.448,   6.408e-3
1.449,   6.756e-3
1.450,   7.013e-3
1.451,   7.041e-3
1.452,   7.329e-3
1.453,   7.347e-3
1.454,   7.334e-3
1.455,   6.189e-3
1.456,   5.951e-3
1.457,   6.120e-3
1.458,   6.134e-3
1.459,   6.134e-3
1.460,   6.726e-3
1.461,   6.775e-3
1.462,   7.026e-3
1.463,   7.171e-3
1.464,   7.395e-3
1.465,   7.604e-3
1.466,   7.638e-3
1.467,   7.840e-3
1.468,   8.072e-3
1.469,   8.257e-3
1.470,   8.384e-3
1.471,   8.615e-3
1.472,   8.843e-3
1.473,   9.071e-3
1.474,   9.284e-3
1.475,   9.349e-3
1.476,   9.481e-3
1.477,   9.515e-3
1.478,   9.709e-3
1.479,   9.800e-3
1.480,   9.909e-3
1.481,   1.002e-2
1.482,   1.007e-2
1.483,   1.007e-2
1.484,   1.007e-2
1.485,   1.007e-2
1.486,   1.007e-2
1.487,   1.007e-2
1.488,   1.007e-2
1.489,   1.007e-2
1.490,   1.007e-2
1.491,   1.007e-2
1.492,   1.007e-2
1.493,   1.007e-2
1.494,   1.007e-2
1.495,   1.007e-2