File: Experimental Records and Raw Data/batch5/final400/B5_BEST_400_#1_High_Quality(#24)-208mV.txt
May 31, 2023   14:44:44
Linear Sweep Voltammetry
File: d:\current work\al_oer\electrochemical test data\batch 5\400\B5_BEST_400_#1_High_Quality(#24)-208mV.txt
Data Source:  Experiment
Instrument Model:  CHI660E
Header:
Note:

Init E (V) = 0.905

Final E (V) = 1.542

Scan Rate (V/s) = 0.010
Sample Interval (V) = 0.001
Quiet Time (sec) = 2
Sensitivity (A/V) = 0.001
Comp R (ohm) = 3.5

Results:

Channel 1:
Ep = 1.499V
ip = 9.023e-3A
Ah = 1.408e-2C

Potential/V, Current/A
0.905,   4.705e-4
0.906,   5.206e-4
0.907,   5.351e-4
0.908,   5.365e-4
0.909,   5.318e-4
0.910,   5.324e-4
0.911,   5.332e-4
0.912,   5.283e-4
0.913,   5.226e-4
0.914,   5.189e-4
0.915,   5.136e-4
0.916,   5.074e-4
0.917,   5.013e-4
0.918,   5.000e-4
0.919,   5.010e-4
0.920,   4.940e-4
0.921,   4.880e-4
0.922,   4.850e-4
0.923,   4.828e-4
0.924,   4.763e-4
0.925,   4.681e-4
0.926,   4.677e-4
0.927,   4.687e-4
0.928,   4.642e-4
0.929,   4.580e-4
0.930,   4.569e-4
0.931,   4.531e-4
0.932,   4.476e-4
0.933,   4.429e-4
0.934,   4.414e-4
0.935,   4.415e-4
0.936,   4.381e-4
0.937,   4.348e-4
0.938,   4.336e-4
0.939,   4.292e-4
0.940,   4.255e-4
0.941,   4.216e-4
0.942,   4.195e-4
0.943,   4.218e-4
0.944,   4.167e-4
0.945,   4.131e-4
0.946,   4.133e-4
0.947,   4.110e-4
0.948,   4.060e-4
0.949,   4.027e-4
0.950,   4.017e-4
0.951,   4.030e-4
0.952,   4.006e-4
0.953,   3.964e-4
0.954,   3.964e-4
0.955,   3.947e-4
0.956,   3.915e-4
0.957,   3.875e-4
0.958,   3.857e-4
0.959,   3.879e-4
0.960,   3.849e-4
0.961,   3.832e-4
0.962,   3.838e-4
0.963,   3.819e-4
0.964,   3.777e-4
0.965,   3.747e-4
0.966,   3.751e-4
0.967,   3.768e-4
0.968,   3.736e-4
0.969,   3.725e-4
0.970,   3.708e-4
0.971,   3.695e-4
0.972,   3.655e-4
0.973,   3.642e-4
0.974,   3.653e-4
0.975,   3.669e-4
0.976,   3.638e-4
0.977,   3.609e-4
0.978,   3.645e-4
0.979,   3.618e-4
0.980,   3.573e-4
0.981,   3.551e-4
0.982,   3.555e-4
0.983,   3.572e-4
0.984,   3.548e-4
0.985,   3.540e-4
0.986,   3.541e-4
0.987,   3.517e-4
0.988,   3.484e-4
0.989,   3.477e-4
0.990,   3.492e-4
0.991,   3.513e-4
0.992,   3.470e-4
0.993,   3.454e-4
0.994,   3.470e-4
0.995,   3.454e-4
0.996,   3.424e-4
0.997,   3.418e-4
0.998,   3.440e-4
0.999,   3.422e-4
1.000,   3.400e-4
1.001,   3.388e-4
1.002,   3.410e-4
1.003,   3.395e-4
1.004,   3.362e-4
1.005,   3.362e-4
1.006,   3.371e-4
1.007,   3.380e-4
1.008,   3.364e-4
1.009,   3.375e-4
1.010,   3.382e-4
1.011,   3.347e-4
1.012,   3.325e-4
1.013,   3.317e-4
1.014,   3.333e-4
1.015,   3.339e-4
1.016,   3.324e-4
1.017,   3.329e-4
1.018,   3.323e-4
1.019,   3.309e-4
1.020,   3.283e-4
1.021,   3.284e-4
1.022,   3.296e-4
1.023,   3.298e-4
1.024,   3.282e-4
1.025,   3.294e-4
1.026,   3.296e-4
1.027,   3.276e-4
1.028,   3.265e-4
1.029,   3.261e-4
1.030,   3.268e-4
1.031,   3.263e-4
1.032,   3.253e-4
1.033,   3.261e-4
1.034,   3.259e-4
1.035,   3.246e-4
1.036,   3.221e-4
1.037,   3.233e-4
1.038,   3.255e-4
1.039,   3.252e-4
1.040,   3.241e-4
1.041,   3.245e-4
1.042,   3.246e-4
1.043,   3.232e-4
1.044,   3.208e-4
1.045,   3.212e-4
1.046,   3.237e-4
1.047,   3.226e-4
1.048,   3.222e-4
1.049,   3.233e-4
1.050,   3.215e-4
1.051,   3.208e-4
1.052,   3.196e-4
1.053,   3.209e-4
1.054,   3.223e-4
1.055,   3.218e-4
1.056,   3.212e-4
1.057,   3.223e-4
1.058,   3.223e-4
1.059,   3.178e-4
1.060,   3.182e-4
1.061,   3.199e-4
1.062,   3.230e-4
1.063,   3.228e-4
1.064,   3.218e-4
1.065,   3.230e-4
1.066,   3.195e-4
1.067,   3.194e-4
1.068,   3.187e-4
1.069,   3.206e-4
1.070,   3.230e-4
1.071,   3.207e-4
1.072,   3.201e-4
1.073,   3.227e-4
1.074,   3.228e-4
1.075,   3.192e-4
1.076,   3.183e-4
1.077,   3.204e-4
1.078,   3.226e-4
1.079,   3.220e-4
1.080,   3.233e-4
1.081,   3.239e-4
1.082,   3.218e-4
1.083,   3.192e-4
1.084,   3.198e-4
1.085,   3.221e-4
1.086,   3.246e-4
1.087,   3.222e-4
1.088,   3.227e-4
1.089,   3.247e-4
1.090,   3.238e-4
1.091,   3.219e-4
1.092,   3.193e-4
1.093,   3.232e-4
1.094,   3.257e-4
1.095,   3.225e-4
1.096,   3.244e-4
1.097,   3.269e-4
1.098,   3.254e-4
1.099,   3.226e-4
1.100,   3.240e-4
1.101,   3.242e-4
1.102,   3.264e-4
1.103,   3.263e-4
1.104,   3.274e-4
1.105,   3.280e-4
1.106,   3.271e-4
1.107,   3.248e-4
1.108,   3.259e-4
1.109,   3.293e-4
1.110,   3.302e-4
1.111,   3.280e-4
1.112,   3.291e-4
1.113,   3.307e-4
1.114,   3.296e-4
1.115,   3.275e-4
1.116,   3.295e-4
1.117,   3.313e-4
1.118,   3.335e-4
1.119,   3.300e-4
1.120,   3.331e-4
1.121,   3.343e-4
1.122,   3.329e-4
1.123,   3.315e-4
1.124,   3.324e-4
1.125,   3.338e-4
1.126,   3.359e-4
1.127,   3.357e-4
1.128,   3.360e-4
1.129,   3.370e-4
1.130,   3.344e-4
1.131,   3.352e-4
1.132,   3.363e-4
1.133,   3.391e-4
1.134,   3.413e-4
1.135,   3.394e-4
1.136,   3.426e-4
1.137,   3.406e-4
1.138,   3.377e-4
1.139,   3.376e-4
1.140,   3.400e-4
1.141,   3.416e-4
1.142,   3.426e-4
1.143,   3.425e-4
1.144,   3.474e-4
1.145,   3.467e-4
1.146,   3.406e-4
1.147,   3.408e-4
1.148,   3.440e-4
1.149,   3.476e-4
1.150,   3.478e-4
1.151,   3.490e-4
1.152,   3.500e-4
1.153,   3.496e-4
1.154,   3.466e-4
1.155,   3.480e-4
1.156,   3.508e-4
1.157,   3.536e-4
1.158,   3.518e-4
1.159,   3.517e-4
1.160,   3.531e-4
1.161,   3.544e-4
1.162,   3.516e-4
1.163,   3.517e-4
1.164,   3.527e-4
1.165,   3.557e-4
1.166,   3.561e-4
1.167,   3.560e-4
1.168,   3.594e-4
1.169,   3.597e-4
1.170,   3.573e-4
1.171,   3.563e-4
1.172,   3.570e-4
1.173,   3.615e-4
1.174,   3.617e-4
1.175,   3.632e-4
1.176,   3.658e-4
1.177,   3.626e-4
1.178,   3.627e-4
1.179,   3.600e-4
1.180,   3.669e-4
1.181,   3.676e-4
1.182,   3.664e-4
1.183,   3.684e-4
1.184,   3.696e-4
1.185,   3.682e-4
1.186,   3.676e-4
1.187,   3.671e-4
1.188,   3.705e-4
1.189,   3.727e-4
1.190,   3.722e-4
1.191,   3.722e-4
1.192,   3.756e-4
1.193,   3.744e-4
1.194,   3.722e-4
1.195,   3.728e-4
1.196,   3.761e-4
1.197,   3.781e-4
1.198,   3.788e-4
1.199,   3.787e-4
1.200,   3.813e-4
1.201,   3.799e-4
1.202,   3.784e-4
1.203,   3.804e-4
1.204,   3.835e-4
1.205,   3.863e-4
1.206,   3.862e-4
1.207,   3.845e-4
1.208,   3.865e-4
1.209,   3.860e-4
1.210,   3.839e-4
1.211,   3.872e-4
1.212,   3.913e-4
1.213,   3.907e-4
1.214,   3.902e-4
1.215,   3.932e-4
1.216,   3.925e-4
1.217,   3.939e-4
1.218,   3.911e-4
1.219,   3.930e-4
1.220,   3.964e-4
1.221,   3.970e-4
1.222,   4.005e-4
1.223,   4.007e-4
1.224,   4.008e-4
1.225,   3.998e-4
1.226,   3.971e-4
1.227,   4.003e-4
1.228,   4.056e-4
1.229,   4.059e-4
1.230,   4.036e-4
1.231,   4.081e-4
1.232,   4.061e-4
1.233,   4.049e-4
1.234,   4.069e-4
1.235,   4.090e-4
1.236,   4.129e-4
1.237,   4.130e-4
1.238,   4.114e-4
1.239,   4.150e-4
1.240,   4.177e-4
1.241,   4.148e-4
1.242,   4.149e-4
1.243,   4.152e-4
1.244,   4.198e-4
1.245,   4.201e-4
1.246,   4.177e-4
1.247,   4.222e-4
1.248,   4.242e-4
1.249,   4.240e-4
1.250,   4.215e-4
1.251,   4.226e-4
1.252,   4.279e-4
1.253,   4.261e-4
1.254,   4.252e-4
1.255,   4.304e-4
1.256,   4.310e-4
1.257,   4.313e-4
1.258,   4.300e-4
1.259,   4.324e-4
1.260,   4.352e-4
1.261,   4.346e-4
1.262,   4.334e-4
1.263,   4.387e-4
1.264,   4.404e-4
1.265,   4.383e-4
1.266,   4.343e-4
1.267,   4.386e-4
1.268,   4.436e-4
1.269,   4.446e-4
1.270,   4.461e-4
1.271,   4.474e-4
1.272,   4.481e-4
1.273,   4.447e-4
1.274,   4.458e-4
1.275,   4.498e-4
1.276,   4.546e-4
1.277,   4.535e-4
1.278,   4.548e-4
1.279,   4.564e-4
1.280,   4.557e-4
1.281,   4.535e-4
1.282,   4.572e-4
1.283,   4.591e-4
1.284,   4.630e-4
1.285,   4.646e-4
1.286,   4.657e-4
1.287,   4.676e-4
1.288,   4.654e-4
1.289,   4.642e-4
1.290,   4.662e-4
1.291,   4.715e-4
1.292,   4.748e-4
1.293,   4.739e-4
1.294,   4.742e-4
1.295,   4.780e-4
1.296,   4.738e-4
1.297,   4.750e-4
1.298,   4.791e-4
1.299,   4.821e-4
1.300,   4.824e-4
1.301,   4.850e-4
1.302,   4.859e-4
1.303,   4.885e-4
1.304,   4.874e-4
1.305,   4.865e-4
1.306,   4.894e-4
1.307,   4.972e-4
1.308,   4.973e-4
1.309,   4.943e-4
1.310,   4.984e-4
1.311,   5.003e-4
1.312,   4.973e-4
1.313,   4.982e-4
1.314,   5.070e-4
1.315,   5.086e-4
1.316,   5.119e-4
1.317,   5.085e-4
1.318,   5.105e-4
1.319,   5.132e-4
1.320,   5.125e-4
1.321,   5.122e-4
1.322,   5.153e-4
1.323,   5.208e-4
1.324,   5.235e-4
1.325,   5.240e-4
1.326,   5.272e-4
1.327,   5.272e-4
1.328,   5.264e-4
1.329,   5.254e-4
1.330,   5.281e-4
1.331,   5.407e-4
1.332,   5.424e-4
1.333,   5.425e-4
1.334,   5.404e-4
1.335,   5.445e-4
1.336,   5.456e-4
1.337,   5.482e-4
1.338,   5.501e-4
1.339,   5.563e-4
1.340,   5.596e-4
1.341,   5.586e-4
1.342,   5.629e-4
1.343,   5.667e-4
1.344,   5.658e-4
1.345,   5.687e-4
1.346,   5.699e-4
1.347,   5.756e-4
1.348,   5.748e-4
1.349,   5.796e-4
1.350,   5.821e-4
1.351,   5.858e-4
1.352,   5.842e-4
1.353,   5.881e-4
1.354,   5.928e-4
1.355,   5.980e-4
1.356,   6.017e-4
1.357,   6.051e-4
1.358,   6.107e-4
1.359,   6.092e-4
1.360,   6.096e-4
1.361,   6.168e-4
1.362,   6.211e-4
1.363,   6.286e-4
1.364,   6.273e-4
1.365,   6.333e-4
1.366,   6.414e-4
1.367,   6.424e-4
1.368,   6.439e-4
1.369,   6.449e-4
1.370,   6.527e-4
1.371,   6.597e-4
1.372,   6.642e-4
1.373,   6.718e-4
1.374,   6.755e-4
1.375,   6.796e-4
1.376,   6.784e-4
1.377,   6.808e-4
1.378,   6.918e-4
1.379,   7.026e-4
1.380,   7.085e-4
1.381,   7.090e-4
1.382,   7.145e-4
1.383,   7.179e-4
1.384,   7.212e-4
1.385,   7.283e-4
1.386,   7.354e-4
1.387,   7.449e-4
1.388,   7.532e-4
1.389,   7.546e-4
1.390,   7.694e-4
1.391,   7.721e-4
1.392,   7.739e-4
1.393,   7.809e-4
1.394,   7.928e-4
1.395,   8.049e-4
1.396,   8.141e-4
1.397,   8.221e-4
1.398,   8.343e-4
1.399,   8.382e-4
1.400,   8.423e-4
1.401,   8.522e-4
1.402,   8.683e-4
1.403,   8.863e-4
1.404,   9.018e-4
1.405,   9.074e-4
1.406,   9.224e-4
1.407,   9.295e-4
1.408,   9.392e-4
1.409,   9.556e-4
1.410,   9.793e-4
1.411,   9.969e-4
1.412,   1.014e-3
1.413,   1.033e-3
1.414,   1.050e-3
1.415,   1.069e-3
1.416,   1.075e-3
1.417,   1.101e-3
1.418,   1.135e-3
1.419,   1.160e-3
1.420,   1.181e-3
1.421,   1.205e-3
1.422,   1.237e-3
1.423,   1.254e-3
1.424,   1.277e-3
1.425,   1.306e-3
1.426,   1.360e-3
1.427,   1.397e-3
1.428,   1.428e-3
1.429,   1.472e-3
1.430,   1.519e-3
1.431,   1.547e-3
1.432,   1.576e-3
1.433,   1.620e-3
1.434,   1.679e-3
1.435,   1.738e-3
1.436,   1.788e-3
1.437,   1.842e-3
1.438,   1.898e-3
1.439,   1.954e-3
1.440,   1.986e-3
1.441,   2.049e-3
1.442,   2.148e-3
1.443,   2.223e-3
1.444,   2.295e-3
1.445,   2.361e-3
1.446,   2.446e-3
1.447,   2.514e-3
1.448,   2.587e-3
1.449,   2.662e-3
1.450,   2.765e-3
1.451,   2.889e-3
1.452,   2.976e-3
1.453,   3.091e-3
1.454,   3.185e-3
1.455,   3.255e-3
1.456,   3.333e-3
1.457,   3.441e-3
1.458,   3.567e-3
1.459,   3.707e-3
1.460,   3.819e-3
1.461,   3.917e-3
1.462,   4.044e-3
1.463,   4.118e-3
1.464,   4.223e-3
1.465,   4.353e-3
1.466,   4.531e-3
1.467,   4.631e-3
1.468,   4.731e-3
1.469,   4.880e-3
1.470,   4.984e-3
1.471,   5.091e-3
1.472,   5.238e-3
1.473,   5.363e-3
1.474,   5.512e-3
1.475,   5.662e-3
1.476,   5.775e-3
1.477,   5.962e-3
1.478,   6.125e-3
1.479,   6.204e-3
1.480,   6.303e-3
1.481,   6.502e-3
1.482,   6.709e-3
1.483,   6.880e-3
1.484,   7.005e-3
1.485,   7.166e-3
1.486,   7.272e-3
1.487,   7.346e-3
1.488,   7.452e-3
1.489,   7.623e-3
1.490,   7.876e-3
1.491,   8.028e-3
1.492,   8.160e-3
1.493,   8.320e-3
1.494,   8.473e-3
1.495,   8.590e-3
1.496,   8.711e-3
1.497,   8.704e-3
1.498,   9.078e-3
1.499,   9.130e-3
1.500,   9.274e-3
1.501,   9.443e-3
1.502,   9.607e-3
1.503,   9.648e-3
1.504,   9.686e-3
1.505,   9.625e-3
1.506,   6.926e-3
1.507,   6.277e-3
1.508,   5.341e-3
1.509,   4.328e-3
1.510,   4.938e-3
1.511,   3.908e-3
1.512,   3.937e-3
1.513,   4.090e-3
1.514,   4.048e-3
1.515,   5.673e-3
1.516,   5.109e-3
1.517,   5.240e-3
1.518,   5.652e-3
1.519,   4.681e-3
1.520,   4.469e-3
1.521,   4.194e-3
1.522,   4.092e-3
1.523,   4.124e-3
1.524,   4.987e-3
1.525,   4.312e-3
1.526,   4.163e-3
1.527,   5.158e-3
1.528,   4.065e-3
1.529,   3.864e-3
1.530,   5.308e-3
1.531,   5.580e-3
1.532,   4.057e-3
1.533,   3.774e-3
1.534,   4.695e-3
1.535,   3.583e-3
1.536,   3.365e-3
1.537,   3.728e-3
1.538,   3.344e-3
1.539,   3.578e-3
1.540,   3.444e-3
1.541,   3.834e-3
1.542,   4.218e-3