File: Experimental Records and Raw Data/batch5/final400/B5_BEST_400_#1_Full(#4)-188mV.txt
May 31, 2023   14:27:31
Linear Sweep Voltammetry
File: d:\current work\al_oer\electrochemical test data\batch 5\400\B5_BEST_400_#1_Full(#4)-188mV.txt
Data Source:  Experiment
Instrument Model:  CHI660E
Header:
Note:

Init E (V) = 0.899

Final E (V) = 1.459

Scan Rate (V/s) = 0.010
Sample Interval (V) = 0.001
Quiet Time (sec) = 2
Sensitivity (A/V) = 0.001
Comp R (ohm) = 5.9

Results:

Channel 1:

Potential/V, Current/A
0.899,   4.922e-4
0.900,   5.248e-4
0.901,   5.140e-4
0.902,   4.967e-4
0.903,   4.870e-4
0.904,   4.687e-4
0.905,   4.619e-4
0.906,   4.497e-4
0.907,   4.394e-4
0.908,   4.359e-4
0.909,   4.197e-4
0.910,   4.182e-4
0.911,   4.075e-4
0.912,   4.034e-4
0.913,   3.933e-4
0.914,   3.957e-4
0.915,   3.864e-4
0.916,   3.770e-4
0.917,   3.752e-4
0.918,   3.719e-4
0.919,   3.682e-4
0.920,   3.630e-4
0.921,   3.604e-4
0.922,   3.563e-4
0.923,   3.526e-4
0.924,   3.504e-4
0.925,   3.446e-4
0.926,   3.458e-4
0.927,   3.391e-4
0.928,   3.394e-4
0.929,   3.378e-4
0.930,   3.321e-4
0.931,   3.324e-4
0.932,   3.226e-4
0.933,   3.272e-4
0.934,   3.286e-4
0.935,   3.182e-4
0.936,   3.235e-4
0.937,   3.241e-4
0.938,   3.162e-4
0.939,   3.159e-4
0.940,   3.135e-4
0.941,   3.143e-4
0.942,   3.083e-4
0.943,   3.106e-4
0.944,   3.095e-4
0.945,   3.079e-4
0.946,   3.101e-4
0.947,   3.022e-4
0.948,   3.024e-4
0.949,   3.028e-4
0.950,   3.008e-4
0.951,   2.994e-4
0.952,   3.001e-4
0.953,   2.984e-4
0.954,   2.955e-4
0.955,   2.963e-4
0.956,   2.949e-4
0.957,   2.936e-4
0.958,   2.953e-4
0.959,   2.911e-4
0.960,   2.912e-4
0.961,   2.921e-4
0.962,   2.926e-4
0.963,   2.894e-4
0.964,   2.900e-4
0.965,   2.892e-4
0.966,   2.878e-4
0.967,   2.861e-4
0.968,   2.845e-4
0.969,   2.849e-4
0.970,   2.846e-4
0.971,   2.818e-4
0.972,   2.847e-4
0.973,   2.831e-4
0.974,   2.831e-4
0.975,   2.818e-4
0.976,   2.840e-4
0.977,   2.800e-4
0.978,   2.817e-4
0.979,   2.795e-4
0.980,   2.800e-4
0.981,   2.793e-4
0.982,   2.796e-4
0.983,   2.776e-4
0.984,   2.800e-4
0.985,   2.780e-4
0.986,   2.758e-4
0.987,   2.768e-4
0.988,   2.790e-4
0.989,   2.727e-4
0.990,   2.766e-4
0.991,   2.741e-4
0.992,   2.753e-4
0.993,   2.769e-4
0.994,   2.753e-4
0.995,   2.753e-4
0.996,   2.738e-4
0.997,   2.755e-4
0.998,   2.714e-4
0.999,   2.721e-4
1.000,   2.747e-4
1.001,   2.718e-4
1.002,   2.698e-4
1.003,   2.723e-4
1.004,   2.716e-4
1.005,   2.731e-4
1.006,   2.726e-4
1.007,   2.715e-4
1.008,   2.724e-4
1.009,   2.741e-4
1.010,   2.715e-4
1.011,   2.707e-4
1.012,   2.676e-4
1.013,   2.713e-4
1.014,   2.705e-4
1.015,   2.701e-4
1.016,   2.729e-4
1.017,   2.680e-4
1.018,   2.698e-4
1.019,   2.713e-4
1.020,   2.680e-4
1.021,   2.718e-4
1.022,   2.704e-4
1.023,   2.694e-4
1.024,   2.741e-4
1.025,   2.666e-4
1.026,   2.724e-4
1.027,   2.661e-4
1.028,   2.670e-4
1.029,   2.713e-4
1.030,   2.721e-4
1.031,   2.692e-4
1.032,   2.696e-4
1.033,   2.683e-4
1.034,   2.711e-4
1.035,   2.681e-4
1.036,   2.715e-4
1.037,   2.695e-4
1.038,   2.678e-4
1.039,   2.742e-4
1.040,   2.712e-4
1.041,   2.634e-4
1.042,   2.713e-4
1.043,   2.674e-4
1.044,   2.691e-4
1.045,   2.689e-4
1.046,   2.687e-4
1.047,   2.696e-4
1.048,   2.679e-4
1.049,   2.714e-4
1.050,   2.729e-4
1.051,   2.698e-4
1.052,   2.674e-4
1.053,   2.727e-4
1.054,   2.699e-4
1.055,   2.734e-4
1.056,   2.660e-4
1.057,   2.719e-4
1.058,   2.733e-4
1.059,   2.722e-4
1.060,   2.706e-4
1.061,   2.699e-4
1.062,   2.702e-4
1.063,   2.694e-4
1.064,   2.706e-4
1.065,   2.758e-4
1.066,   2.708e-4
1.067,   2.685e-4
1.068,   2.724e-4
1.069,   2.718e-4
1.070,   2.719e-4
1.071,   2.724e-4
1.072,   2.722e-4
1.073,   2.762e-4
1.074,   2.703e-4
1.075,   2.766e-4
1.076,   2.693e-4
1.077,   2.770e-4
1.078,   2.723e-4
1.079,   2.729e-4
1.080,   2.738e-4
1.081,   2.762e-4
1.082,   2.697e-4
1.083,   2.743e-4
1.084,   2.735e-4
1.085,   2.740e-4
1.086,   2.801e-4
1.087,   2.725e-4
1.088,   2.801e-4
1.089,   2.729e-4
1.090,   2.765e-4
1.091,   2.766e-4
1.092,   2.762e-4
1.093,   2.784e-4
1.094,   2.771e-4
1.095,   2.794e-4
1.096,   2.749e-4
1.097,   2.783e-4
1.098,   2.770e-4
1.099,   2.816e-4
1.100,   2.842e-4
1.101,   2.804e-4
1.102,   2.777e-4
1.103,   2.807e-4
1.104,   2.781e-4
1.105,   2.826e-4
1.106,   2.796e-4
1.107,   2.818e-4
1.108,   2.778e-4
1.109,   2.805e-4
1.110,   2.822e-4
1.111,   2.828e-4
1.112,   2.811e-4
1.113,   2.828e-4
1.114,   2.883e-4
1.115,   2.807e-4
1.116,   2.840e-4
1.117,   2.851e-4
1.118,   2.853e-4
1.119,   2.854e-4
1.120,   2.818e-4
1.121,   2.847e-4
1.122,   2.873e-4
1.123,   2.848e-4
1.124,   2.888e-4
1.125,   2.876e-4
1.126,   2.900e-4
1.127,   2.841e-4
1.128,   2.870e-4
1.129,   2.876e-4
1.130,   2.886e-4
1.131,   2.897e-4
1.132,   2.891e-4
1.133,   2.898e-4
1.134,   2.924e-4
1.135,   2.875e-4
1.136,   2.920e-4
1.137,   2.893e-4
1.138,   2.910e-4
1.139,   2.899e-4
1.140,   2.897e-4
1.141,   2.920e-4
1.142,   2.937e-4
1.143,   2.937e-4
1.144,   2.910e-4
1.145,   2.954e-4
1.146,   2.931e-4
1.147,   2.963e-4
1.148,   2.931e-4
1.149,   2.980e-4
1.150,   2.908e-4
1.151,   2.956e-4
1.152,   2.943e-4
1.153,   2.991e-4
1.154,   2.944e-4
1.155,   2.987e-4
1.156,   2.942e-4
1.157,   2.975e-4
1.158,   3.007e-4
1.159,   2.963e-4
1.160,   2.978e-4
1.161,   3.004e-4
1.162,   2.997e-4
1.163,   3.005e-4
1.164,   3.013e-4
1.165,   3.006e-4
1.166,   3.007e-4
1.167,   3.036e-4
1.168,   2.982e-4
1.169,   3.018e-4
1.170,   3.045e-4
1.171,   3.025e-4
1.172,   3.004e-4
1.173,   3.041e-4
1.174,   3.029e-4
1.175,   3.078e-4
1.176,   3.043e-4
1.177,   3.057e-4
1.178,   3.052e-4
1.179,   3.054e-4
1.180,   3.048e-4
1.181,   3.078e-4
1.182,   3.088e-4
1.183,   3.025e-4
1.184,   3.119e-4
1.185,   3.066e-4
1.186,   3.067e-4
1.187,   3.100e-4
1.188,   3.117e-4
1.189,   3.095e-4
1.190,   3.093e-4
1.191,   3.082e-4
1.192,   3.123e-4
1.193,   3.063e-4
1.194,   3.107e-4
1.195,   3.163e-4
1.196,   3.091e-4
1.197,   3.117e-4
1.198,   3.149e-4
1.199,   3.135e-4
1.200,   3.126e-4
1.201,   3.162e-4
1.202,   3.152e-4
1.203,   3.203e-4
1.204,   3.117e-4
1.205,   3.201e-4
1.206,   3.190e-4
1.207,   3.150e-4
1.208,   3.177e-4
1.209,   3.171e-4
1.210,   3.161e-4
1.211,   3.178e-4
1.212,   3.144e-4
1.213,   3.186e-4
1.214,   3.185e-4
1.215,   3.204e-4
1.216,   3.239e-4
1.217,   3.220e-4
1.218,   3.223e-4
1.219,   3.171e-4
1.220,   3.208e-4
1.221,   3.221e-4
1.222,   3.214e-4
1.223,   3.246e-4
1.224,   3.236e-4
1.225,   3.245e-4
1.226,   3.242e-4
1.227,   3.247e-4
1.228,   3.306e-4
1.229,   3.226e-4
1.230,   3.270e-4
1.231,   3.255e-4
1.232,   3.263e-4
1.233,   3.347e-4
1.234,   3.231e-4
1.235,   3.293e-4
1.236,   3.309e-4
1.237,   3.300e-4
1.238,   3.340e-4
1.239,   3.295e-4
1.240,   3.339e-4
1.241,   3.278e-4
1.242,   3.332e-4
1.243,   3.360e-4
1.244,   3.304e-4
1.245,   3.338e-4
1.246,   3.370e-4
1.247,   3.332e-4
1.248,   3.351e-4
1.249,   3.377e-4
1.250,   3.362e-4
1.251,   3.366e-4
1.252,   3.375e-4
1.253,   3.383e-4
1.254,   3.391e-4
1.255,   3.372e-4
1.256,   3.367e-4
1.257,   3.416e-4
1.258,   3.410e-4
1.259,   3.422e-4
1.260,   3.424e-4
1.261,   3.406e-4
1.262,   3.425e-4
1.263,   3.402e-4
1.264,   3.426e-4
1.265,   3.486e-4
1.266,   3.488e-4
1.267,   3.403e-4
1.268,   3.441e-4
1.269,   3.468e-4
1.270,   3.504e-4
1.271,   3.434e-4
1.272,   3.502e-4
1.273,   3.493e-4
1.274,   3.488e-4
1.275,   3.491e-4
1.276,   3.506e-4
1.277,   3.469e-4
1.278,   3.520e-4
1.279,   3.529e-4
1.280,   3.558e-4
1.281,   3.571e-4
1.282,   3.507e-4
1.283,   3.528e-4
1.284,   3.532e-4
1.285,   3.573e-4
1.286,   3.579e-4
1.287,   3.584e-4
1.288,   3.581e-4
1.289,   3.532e-4
1.290,   3.592e-4
1.291,   3.592e-4
1.292,   3.601e-4
1.293,   3.642e-4
1.294,   3.650e-4
1.295,   3.606e-4
1.296,   3.642e-4
1.297,   3.694e-4
1.298,   3.640e-4
1.299,   3.634e-4
1.300,   3.659e-4
1.301,   3.701e-4
1.302,   3.667e-4
1.303,   3.731e-4
1.304,   3.719e-4
1.305,   3.718e-4
1.306,   3.697e-4
1.307,   3.746e-4
1.308,   3.772e-4
1.309,   3.741e-4
1.310,   3.809e-4
1.311,   3.759e-4
1.312,   3.772e-4
1.313,   3.851e-4
1.314,   3.803e-4
1.315,   3.842e-4
1.316,   3.810e-4
1.317,   3.828e-4
1.318,   3.874e-4
1.319,   3.841e-4
1.320,   3.866e-4
1.321,   3.889e-4
1.322,   3.931e-4
1.323,   3.937e-4
1.324,   3.922e-4
1.325,   3.923e-4
1.326,   3.930e-4
1.327,   3.980e-4
1.328,   3.979e-4
1.329,   4.002e-4
1.330,   4.055e-4
1.331,   4.044e-4
1.332,   4.069e-4
1.333,   4.056e-4
1.334,   4.095e-4
1.335,   4.140e-4
1.336,   4.124e-4
1.337,   4.120e-4
1.338,   4.151e-4
1.339,   4.182e-4
1.340,   4.238e-4
1.341,   4.195e-4
1.342,   4.272e-4
1.343,   4.301e-4
1.344,   4.279e-4
1.345,   4.324e-4
1.346,   4.341e-4
1.347,   4.338e-4
1.348,   4.417e-4
1.349,   4.382e-4
1.350,   4.449e-4
1.351,   4.428e-4
1.352,   4.512e-4
1.353,   4.546e-4
1.354,   4.516e-4
1.355,   4.592e-4
1.356,   4.619e-4
1.357,   4.652e-4
1.358,   4.699e-4
1.359,   4.684e-4
1.360,   4.788e-4
1.361,   4.770e-4
1.362,   4.856e-4
1.363,   4.894e-4
1.364,   4.947e-4
1.365,   4.972e-4
1.366,   5.074e-4
1.367,   5.014e-4
1.368,   5.146e-4
1.369,   5.170e-4
1.370,   5.224e-4
1.371,   5.278e-4
1.372,   5.308e-4
1.373,   5.384e-4
1.374,   5.526e-4
1.375,   5.447e-4
1.376,   5.591e-4
1.377,   5.697e-4
1.378,   5.756e-4
1.379,   5.898e-4
1.380,   5.950e-4
1.381,   5.966e-4
1.382,   6.152e-4
1.383,   6.239e-4
1.384,   6.332e-4
1.385,   6.472e-4
1.386,   6.635e-4
1.387,   6.717e-4
1.388,   6.844e-4
1.389,   7.058e-4
1.390,   7.114e-4
1.391,   7.352e-4
1.392,   7.496e-4
1.393,   7.701e-4
1.394,   7.889e-4
1.395,   8.082e-4
1.396,   8.295e-4
1.397,   8.499e-4
1.398,   8.794e-4
1.399,   9.044e-4
1.400,   9.257e-4
1.401,   9.666e-4
1.402,   9.960e-4
1.403,   1.025e-3
1.404,   1.068e-3
1.405,   1.093e-3
1.406,   1.146e-3
1.407,   1.179e-3
1.408,   1.225e-3
1.409,   1.286e-3
1.410,   1.328e-3
1.411,   1.397e-3
1.412,   1.453e-3
1.413,   1.514e-3
1.414,   1.580e-3
1.415,   1.651e-3
1.416,   1.711e-3
1.417,   1.839e-3
1.418,   1.886e-3
1.419,   1.991e-3
1.420,   2.101e-3
1.421,   2.210e-3
1.422,   2.322e-3
1.423,   2.445e-3
1.424,   2.559e-3
1.425,   2.708e-3
1.426,   2.858e-3
1.427,   3.017e-3
1.428,   3.197e-3
1.429,   3.340e-3
1.430,   3.523e-3
1.431,   3.740e-3
1.432,   3.984e-3
1.433,   4.219e-3
1.434,   4.402e-3
1.435,   4.667e-3
1.436,   4.877e-3
1.437,   5.089e-3
1.438,   5.347e-3
1.439,   5.630e-3
1.440,   5.908e-3
1.441,   6.189e-3
1.442,   6.413e-3
1.443,   6.741e-3
1.444,   6.997e-3
1.445,   7.327e-3
1.446,   7.734e-3
1.447,   8.033e-3
1.448,   8.346e-3
1.449,   8.608e-3
1.450,   8.915e-3
1.451,   9.007e-3
1.452,   9.224e-3
1.453,   9.326e-3
1.454,   9.499e-3
1.455,   9.578e-3
1.456,   9.706e-3
1.457,   9.857e-3
1.458,   9.922e-3
1.459,   1.003e-2