File: Experimental Records and Raw Data/batch5/final400/B5_BEST_400_#1_Full(#7)-267mV.txt
May 31, 2023   16:21:23
Linear Sweep Voltammetry
File: d:\current work\al_oer\electrochemical test data\batch 5\400\B5_BEST_400_#1_Full(#7)-267mV.txt
Data Source:  Experiment
Instrument Model:  CHI660E
Header:
Note:

Init E (V) = 0.902

Final E (V) = 1.580

Scan Rate (V/s) = 0.010
Sample Interval (V) = 0.001
Quiet Time (sec) = 2
Sensitivity (A/V) = 0.001
Comp R (ohm) = 7.1

Results:

Channel 1:

Potential/V, Current/A
0.902,   7.651e-5
0.903,   8.155e-5
0.904,   8.183e-5
0.905,   8.115e-5
0.906,   8.039e-5
0.907,   8.033e-5
0.908,   8.016e-5
0.909,   7.970e-5
0.910,   7.933e-5
0.911,   7.820e-5
0.912,   7.798e-5
0.913,   7.801e-5
0.914,   7.759e-5
0.915,   7.702e-5
0.916,   7.598e-5
0.917,   7.588e-5
0.918,   7.558e-5
0.919,   7.545e-5
0.920,   7.493e-5
0.921,   7.409e-5
0.922,   7.364e-5
0.923,   7.356e-5
0.924,   7.357e-5
0.925,   7.298e-5
0.926,   7.219e-5
0.927,   7.161e-5
0.928,   7.148e-5
0.929,   7.156e-5
0.930,   7.150e-5
0.931,   7.054e-5
0.932,   7.012e-5
0.933,   6.995e-5
0.934,   6.983e-5
0.935,   6.962e-5
0.936,   6.910e-5
0.937,   6.854e-5
0.938,   6.828e-5
0.939,   6.845e-5
0.940,   6.825e-5
0.941,   6.771e-5
0.942,   6.722e-5
0.943,   6.714e-5
0.944,   6.698e-5
0.945,   6.701e-5
0.946,   6.651e-5
0.947,   6.598e-5
0.948,   6.596e-5
0.949,   6.587e-5
0.950,   6.589e-5
0.951,   6.551e-5
0.952,   6.483e-5
0.953,   6.481e-5
0.954,   6.462e-5
0.955,   6.474e-5
0.956,   6.450e-5
0.957,   6.388e-5
0.958,   6.376e-5
0.959,   6.372e-5
0.960,   6.376e-5
0.961,   6.357e-5
0.962,   6.305e-5
0.963,   6.295e-5
0.964,   6.282e-5
0.965,   6.280e-5
0.966,   6.279e-5
0.967,   6.217e-5
0.968,   6.195e-5
0.969,   6.201e-5
0.970,   6.167e-5
0.971,   6.193e-5
0.972,   6.156e-5
0.973,   6.114e-5
0.974,   6.141e-5
0.975,   6.112e-5
0.976,   6.123e-5
0.977,   6.096e-5
0.978,   6.045e-5
0.979,   6.041e-5
0.980,   6.050e-5
0.981,   6.058e-5
0.982,   6.033e-5
0.983,   6.010e-5
0.984,   5.987e-5
0.985,   5.966e-5
0.986,   5.993e-5
0.987,   5.985e-5
0.988,   5.926e-5
0.989,   5.946e-5
0.990,   5.917e-5
0.991,   5.928e-5
0.992,   5.926e-5
0.993,   5.886e-5
0.994,   5.875e-5
0.995,   5.863e-5
0.996,   5.907e-5
0.997,   5.880e-5
0.998,   5.826e-5
0.999,   5.814e-5
1.000,   5.811e-5
1.001,   5.865e-5
1.002,   5.832e-5
1.003,   5.806e-5
1.004,   5.782e-5
1.005,   5.765e-5
1.006,   5.795e-5
1.007,   5.807e-5
1.008,   5.764e-5
1.009,   5.723e-5
1.010,   5.748e-5
1.011,   5.745e-5
1.012,   5.767e-5
1.013,   5.742e-5
1.014,   5.704e-5
1.015,   5.707e-5
1.016,   5.713e-5
1.017,   5.739e-5
1.018,   5.709e-5
1.019,   5.688e-5
1.020,   5.685e-5
1.021,   5.673e-5
1.022,   5.710e-5
1.023,   5.696e-5
1.024,   5.657e-5
1.025,   5.660e-5
1.026,   5.656e-5
1.027,   5.685e-5
1.028,   5.677e-5
1.029,   5.665e-5
1.030,   5.617e-5
1.031,   5.624e-5
1.032,   5.656e-5
1.033,   5.662e-5
1.034,   5.632e-5
1.035,   5.618e-5
1.036,   5.617e-5
1.037,   5.641e-5
1.038,   5.625e-5
1.039,   5.656e-5
1.040,   5.570e-5
1.041,   5.600e-5
1.042,   5.614e-5
1.043,   5.634e-5
1.044,   5.621e-5
1.045,   5.587e-5
1.046,   5.597e-5
1.047,   5.599e-5
1.048,   5.627e-5
1.049,   5.620e-5
1.050,   5.579e-5
1.051,   5.583e-5
1.052,   5.591e-5
1.053,   5.624e-5
1.054,   5.610e-5
1.055,   5.601e-5
1.056,   5.560e-5
1.057,   5.576e-5
1.058,   5.637e-5
1.059,   5.619e-5
1.060,   5.559e-5
1.061,   5.571e-5
1.062,   5.580e-5
1.063,   5.612e-5
1.064,   5.623e-5
1.065,   5.588e-5
1.066,   5.574e-5
1.067,   5.600e-5
1.068,   5.610e-5
1.069,   5.623e-5
1.070,   5.580e-5
1.071,   5.579e-5
1.072,   5.583e-5
1.073,   5.607e-5
1.074,   5.643e-5
1.075,   5.619e-5
1.076,   5.586e-5
1.077,   5.606e-5
1.078,   5.611e-5
1.079,   5.642e-5
1.080,   5.647e-5
1.081,   5.583e-5
1.082,   5.601e-5
1.083,   5.608e-5
1.084,   5.663e-5
1.085,   5.663e-5
1.086,   5.602e-5
1.087,   5.627e-5
1.088,   5.607e-5
1.089,   5.702e-5
1.090,   5.670e-5
1.091,   5.628e-5
1.092,   5.615e-5
1.093,   5.634e-5
1.094,   5.676e-5
1.095,   5.705e-5
1.096,   5.651e-5
1.097,   5.655e-5
1.098,   5.654e-5
1.099,   5.682e-5
1.100,   5.704e-5
1.101,   5.718e-5
1.102,   5.651e-5
1.103,   5.680e-5
1.104,   5.697e-5
1.105,   5.727e-5
1.106,   5.716e-5
1.107,   5.688e-5
1.108,   5.725e-5
1.109,   5.733e-5
1.110,   5.750e-5
1.111,   5.748e-5
1.112,   5.715e-5
1.113,   5.737e-5
1.114,   5.748e-5
1.115,   5.776e-5
1.116,   5.780e-5
1.117,   5.739e-5
1.118,   5.760e-5
1.119,   5.771e-5
1.120,   5.793e-5
1.121,   5.807e-5
1.122,   5.782e-5
1.123,   5.786e-5
1.124,   5.792e-5
1.125,   5.825e-5
1.126,   5.839e-5
1.127,   5.817e-5
1.128,   5.814e-5
1.129,   5.798e-5
1.130,   5.856e-5
1.131,   5.847e-5
1.132,   5.848e-5
1.133,   5.842e-5
1.134,   5.869e-5
1.135,   5.884e-5
1.136,   5.897e-5
1.137,   5.896e-5
1.138,   5.879e-5
1.139,   5.900e-5
1.140,   5.926e-5
1.141,   5.943e-5
1.142,   5.942e-5
1.143,   5.917e-5
1.144,   5.934e-5
1.145,   5.948e-5
1.146,   5.982e-5
1.147,   5.975e-5
1.148,   5.953e-5
1.149,   5.974e-5
1.150,   6.018e-5
1.151,   5.994e-5
1.152,   6.019e-5
1.153,   6.005e-5
1.154,   6.009e-5
1.155,   6.012e-5
1.156,   6.060e-5
1.157,   6.066e-5
1.158,   6.046e-5
1.159,   6.047e-5
1.160,   6.052e-5
1.161,   6.135e-5
1.162,   6.080e-5
1.163,   6.100e-5
1.164,   6.058e-5
1.165,   6.083e-5
1.166,   6.119e-5
1.167,   6.148e-5
1.168,   6.120e-5
1.169,   6.121e-5
1.170,   6.126e-5
1.171,   6.143e-5
1.172,   6.177e-5
1.173,   6.208e-5
1.174,   6.125e-5
1.175,   6.189e-5
1.176,   6.161e-5
1.177,   6.182e-5
1.178,   6.200e-5
1.179,   6.187e-5
1.180,   6.205e-5
1.181,   6.197e-5
1.182,   6.250e-5
1.183,   6.245e-5
1.184,   6.220e-5
1.185,   6.249e-5
1.186,   6.223e-5
1.187,   6.260e-5
1.188,   6.287e-5
1.189,   6.247e-5
1.190,   6.267e-5
1.191,   6.270e-5
1.192,   6.319e-5
1.193,   6.342e-5
1.194,   6.253e-5
1.195,   6.285e-5
1.196,   6.295e-5
1.197,   6.326e-5
1.198,   6.343e-5
1.199,   6.328e-5
1.200,   6.314e-5
1.201,   6.326e-5
1.202,   6.348e-5
1.203,   6.387e-5
1.204,   6.348e-5
1.205,   6.337e-5
1.206,   6.351e-5
1.207,   6.381e-5
1.208,   6.402e-5
1.209,   6.406e-5
1.210,   6.356e-5
1.211,   6.381e-5
1.212,   6.417e-5
1.213,   6.470e-5
1.214,   6.407e-5
1.215,   6.393e-5
1.216,   6.419e-5
1.217,   6.436e-5
1.218,   6.474e-5
1.219,   6.471e-5
1.220,   6.428e-5
1.221,   6.453e-5
1.222,   6.457e-5
1.223,   6.525e-5
1.224,   6.504e-5
1.225,   6.472e-5
1.226,   6.447e-5
1.227,   6.480e-5
1.228,   6.515e-5
1.229,   6.519e-5
1.230,   6.517e-5
1.231,   6.549e-5
1.232,   6.507e-5
1.233,   6.552e-5
1.234,   6.559e-5
1.235,   6.543e-5
1.236,   6.530e-5
1.237,   6.547e-5
1.238,   6.608e-5
1.239,   6.578e-5
1.240,   6.565e-5
1.241,   6.554e-5
1.242,   6.571e-5
1.243,   6.617e-5
1.244,   6.613e-5
1.245,   6.614e-5
1.246,   6.598e-5
1.247,   6.604e-5
1.248,   6.630e-5
1.249,   6.634e-5
1.250,   6.654e-5
1.251,   6.601e-5
1.252,   6.632e-5
1.253,   6.647e-5
1.254,   6.687e-5
1.255,   6.679e-5
1.256,   6.642e-5
1.257,   6.663e-5
1.258,   6.657e-5
1.259,   6.704e-5
1.260,   6.727e-5
1.261,   6.660e-5
1.262,   6.701e-5
1.263,   6.723e-5
1.264,   6.706e-5
1.265,   6.778e-5
1.266,   6.680e-5
1.267,   6.701e-5
1.268,   6.731e-5
1.269,   6.758e-5
1.270,   6.814e-5
1.271,   6.728e-5
1.272,   6.727e-5
1.273,   6.771e-5
1.274,   6.775e-5
1.275,   6.864e-5
1.276,   6.773e-5
1.277,   6.753e-5
1.278,   6.801e-5
1.279,   6.828e-5
1.280,   6.820e-5
1.281,   6.840e-5
1.282,   6.809e-5
1.283,   6.825e-5
1.284,   6.842e-5
1.285,   6.873e-5
1.286,   6.882e-5
1.287,   6.844e-5
1.288,   6.870e-5
1.289,   6.887e-5
1.290,   6.902e-5
1.291,   6.923e-5
1.292,   6.898e-5
1.293,   6.885e-5
1.294,   6.925e-5
1.295,   6.962e-5
1.296,   6.959e-5
1.297,   6.991e-5
1.298,   6.939e-5
1.299,   6.963e-5
1.300,   6.961e-5
1.301,   7.045e-5
1.302,   7.038e-5
1.303,   6.972e-5
1.304,   6.998e-5
1.305,   7.046e-5
1.306,   7.072e-5
1.307,   7.068e-5
1.308,   7.028e-5
1.309,   7.050e-5
1.310,   7.090e-5
1.311,   7.127e-5
1.312,   7.119e-5
1.313,   7.085e-5
1.314,   7.129e-5
1.315,   7.120e-5
1.316,   7.196e-5
1.317,   7.182e-5
1.318,   7.120e-5
1.319,   7.137e-5
1.320,   7.175e-5
1.321,   7.252e-5
1.322,   7.239e-5
1.323,   7.239e-5
1.324,   7.230e-5
1.325,   7.202e-5
1.326,   7.331e-5
1.327,   7.320e-5
1.328,   7.267e-5
1.329,   7.275e-5
1.330,   7.324e-5
1.331,   7.335e-5
1.332,   7.379e-5
1.333,   7.370e-5
1.334,   7.350e-5
1.335,   7.371e-5
1.336,   7.426e-5
1.337,   7.463e-5
1.338,   7.438e-5
1.339,   7.416e-5
1.340,   7.497e-5
1.341,   7.500e-5
1.342,   7.509e-5
1.343,   7.545e-5
1.344,   7.474e-5
1.345,   7.518e-5
1.346,   7.592e-5
1.347,   7.618e-5
1.348,   7.682e-5
1.349,   7.552e-5
1.350,   7.620e-5
1.351,   7.654e-5
1.352,   7.759e-5
1.353,   7.746e-5
1.354,   7.679e-5
1.355,   7.701e-5
1.356,   7.751e-5
1.357,   7.826e-5
1.358,   7.851e-5
1.359,   7.816e-5
1.360,   7.814e-5
1.361,   7.868e-5
1.362,   7.928e-5
1.363,   7.965e-5
1.364,   7.944e-5
1.365,   7.944e-5
1.366,   7.982e-5
1.367,   8.081e-5
1.368,   8.108e-5
1.369,   8.048e-5
1.370,   8.071e-5
1.371,   8.126e-5
1.372,   8.208e-5
1.373,   8.239e-5
1.374,   8.203e-5
1.375,   8.218e-5
1.376,   8.258e-5
1.377,   8.318e-5
1.378,   8.426e-5
1.379,   8.414e-5
1.380,   8.380e-5
1.381,   8.435e-5
1.382,   8.494e-5
1.383,   8.599e-5
1.384,   8.634e-5
1.385,   8.598e-5
1.386,   8.626e-5
1.387,   8.677e-5
1.388,   8.836e-5
1.389,   8.883e-5
1.390,   8.810e-5
1.391,   8.892e-5
1.392,   8.949e-5
1.393,   9.103e-5
1.394,   9.126e-5
1.395,   9.074e-5
1.396,   9.163e-5
1.397,   9.238e-5
1.398,   9.350e-5
1.399,   9.439e-5
1.400,   9.468e-5
1.401,   9.497e-5
1.402,   9.587e-5
1.403,   9.700e-5
1.404,   9.850e-5
1.405,   9.885e-5
1.406,   9.912e-5
1.407,   1.006e-4
1.408,   1.014e-4
1.409,   1.034e-4
1.410,   1.042e-4
1.411,   1.039e-4
1.412,   1.057e-4
1.413,   1.072e-4
1.414,   1.093e-4
1.415,   1.103e-4
1.416,   1.112e-4
1.417,   1.135e-4
1.418,   1.135e-4
1.419,   1.171e-4
1.420,   1.190e-4
1.421,   1.200e-4
1.422,   1.217e-4
1.423,   1.236e-4
1.424,   1.272e-4
1.425,   1.296e-4
1.426,   1.316e-4
1.427,   1.341e-4
1.428,   1.365e-4
1.429,   1.410e-4
1.430,   1.434e-4
1.431,   1.465e-4
1.432,   1.498e-4
1.433,   1.531e-4
1.434,   1.579e-4
1.435,   1.631e-4
1.436,   1.671e-4
1.437,   1.710e-4
1.438,   1.754e-4
1.439,   1.814e-4
1.440,   1.878e-4
1.441,   1.933e-4
1.442,   1.982e-4
1.443,   2.047e-4
1.444,   2.125e-4
1.445,   2.212e-4
1.446,   2.282e-4
1.447,   2.348e-4
1.448,   2.438e-4
1.449,   2.524e-4
1.450,   2.659e-4
1.451,   2.741e-4
1.452,   2.842e-4
1.453,   2.948e-4
1.454,   3.058e-4
1.455,   3.224e-4
1.456,   3.351e-4
1.457,   3.490e-4
1.458,   3.610e-4
1.459,   3.752e-4
1.460,   3.959e-4
1.461,   4.147e-4
1.462,   4.323e-4
1.463,   4.475e-4
1.464,   4.662e-4
1.465,   4.909e-4
1.466,   5.164e-4
1.467,   5.405e-4
1.468,   5.588e-4
1.469,   5.829e-4
1.470,   6.114e-4
1.471,   6.483e-4
1.472,   6.742e-4
1.473,   6.966e-4
1.474,   7.275e-4
1.475,   7.590e-4
1.476,   8.054e-4
1.477,   8.394e-4
1.478,   8.700e-4
1.479,   9.040e-4
1.480,   9.445e-4
1.481,   1.001e-3
1.482,   1.042e-3
1.483,   1.082e-3
1.484,   1.120e-3
1.485,   1.164e-3
1.486,   1.235e-3
1.487,   1.291e-3
1.488,   1.334e-3
1.489,   1.380e-3
1.490,   1.437e-3
1.491,   1.507e-3
1.492,   1.573e-3
1.493,   1.629e-3
1.494,   1.677e-3
1.495,   1.742e-3
1.496,   1.816e-3
1.497,   1.899e-3
1.498,   1.960e-3
1.499,   2.005e-3
1.500,   2.081e-3
1.501,   2.159e-3
1.502,   2.263e-3
1.503,   2.341e-3
1.504,   2.392e-3
1.505,   2.469e-3
1.506,   2.569e-3
1.507,   2.700e-3
1.508,   2.787e-3
1.509,   2.848e-3
1.510,   2.933e-3
1.511,   3.037e-3
1.512,   3.198e-3
1.513,   3.313e-3
1.514,   3.382e-3
1.515,   3.438e-3
1.516,   3.580e-3
1.517,   3.728e-3
1.518,   3.906e-3
1.519,   4.001e-3
1.520,   4.072e-3
1.521,   4.174e-3
1.522,   4.300e-3
1.523,   4.509e-3
1.524,   4.635e-3
1.525,   4.704e-3
1.526,   4.767e-3
1.527,   4.900e-3
1.528,   5.098e-3
1.529,   5.264e-3
1.530,   5.353e-3
1.531,   5.446e-3
1.532,   5.642e-3
1.533,   5.850e-3
1.534,   6.014e-3
1.535,   6.047e-3
1.536,   6.148e-3
1.537,   6.193e-3
1.538,   6.440e-3
1.539,   6.568e-3
1.540,   6.649e-3
1.541,   6.737e-3
1.542,   6.865e-3
1.543,   7.111e-3
1.544,   7.290e-3
1.545,   7.423e-3
1.546,   7.464e-3
1.547,   7.611e-3
1.548,   7.917e-3
1.549,   8.121e-3
1.550,   8.104e-3
1.551,   8.060e-3
1.552,   8.135e-3
1.553,   8.401e-3
1.554,   8.697e-3
1.555,   8.802e-3
1.556,   8.726e-3
1.557,   8.702e-3
1.558,   8.882e-3
1.559,   9.226e-3
1.560,   9.320e-3
1.561,   9.250e-3
1.562,   9.235e-3
1.563,   9.369e-3
1.564,   9.604e-3
1.565,   9.619e-3
1.566,   9.644e-3
1.567,   9.701e-3
1.568,   9.935e-3
1.569,   9.963e-3
1.570,   9.916e-3
1.571,   9.967e-3
1.572,   1.002e-2
1.573,   1.004e-2
1.574,   1.005e-2
1.575,   1.006e-2
1.576,   1.007e-2
1.577,   1.007e-2
1.578,   1.007e-2
1.579,   1.007e-2
1.580,   1.007e-2