File: Experimental Records and Raw Data/batch5/final400/B5_BEST_400_#1_High_Quality(#19)-208mV.txt
May 30, 2023   22:01:59
Linear Sweep Voltammetry
File: d:\current work\al_oer\electrochemical test data\batch 5\400\B5_BEST_400_#1_High_Quality(#19)-208mV.txt
Data Source:  Experiment
Instrument Model:  CHI660E
Header:
Note:

Init E (V) = 0.898

Final E (V) = 1.521

Scan Rate (V/s) = 0.010
Sample Interval (V) = 0.001
Quiet Time (sec) = 2
Sensitivity (A/V) = 0.001
Comp R (ohm) = 7.3

Results:

Channel 1:

Potential/V, Current/A
0.898,   3.261e-3
0.899,   3.121e-3
0.900,   2.982e-3
0.901,   2.859e-3
0.902,   2.733e-3
0.903,   2.622e-3
0.904,   2.525e-3
0.905,   2.418e-3
0.906,   2.329e-3
0.907,   2.240e-3
0.908,   2.161e-3
0.909,   2.078e-3
0.910,   2.004e-3
0.911,   1.937e-3
0.912,   1.872e-3
0.913,   1.815e-3
0.914,   1.745e-3
0.915,   1.699e-3
0.916,   1.650e-3
0.917,   1.596e-3
0.918,   1.560e-3
0.919,   1.521e-3
0.920,   1.478e-3
0.921,   1.441e-3
0.922,   1.404e-3
0.923,   1.369e-3
0.924,   1.339e-3
0.925,   1.304e-3
0.926,   1.273e-3
0.927,   1.245e-3
0.928,   1.219e-3
0.929,   1.190e-3
0.930,   1.165e-3
0.931,   1.138e-3
0.932,   1.116e-3
0.933,   1.102e-3
0.934,   1.080e-3
0.935,   1.059e-3
0.936,   1.039e-3
0.937,   1.020e-3
0.938,   1.004e-3
0.939,   9.844e-4
0.940,   9.637e-4
0.941,   9.530e-4
0.942,   9.387e-4
0.943,   9.228e-4
0.944,   9.087e-4
0.945,   8.912e-4
0.946,   8.806e-4
0.947,   8.702e-4
0.948,   8.555e-4
0.949,   8.428e-4
0.950,   8.328e-4
0.951,   8.198e-4
0.952,   8.084e-4
0.953,   7.982e-4
0.954,   7.892e-4
0.955,   7.800e-4
0.956,   7.724e-4
0.957,   7.605e-4
0.958,   7.515e-4
0.959,   7.453e-4
0.960,   7.355e-4
0.961,   7.284e-4
0.962,   7.217e-4
0.963,   7.105e-4
0.964,   7.066e-4
0.965,   6.990e-4
0.966,   6.917e-4
0.967,   6.881e-4
0.968,   6.786e-4
0.969,   6.711e-4
0.970,   6.686e-4
0.971,   6.616e-4
0.972,   6.567e-4
0.973,   6.525e-4
0.974,   6.441e-4
0.975,   6.397e-4
0.976,   6.351e-4
0.977,   6.309e-4
0.978,   6.266e-4
0.979,   6.223e-4
0.980,   6.154e-4
0.981,   6.118e-4
0.982,   6.088e-4
0.983,   6.028e-4
0.984,   6.001e-4
0.985,   5.939e-4
0.986,   5.911e-4
0.987,   5.898e-4
0.988,   5.864e-4
0.989,   5.815e-4
0.990,   5.787e-4
0.991,   5.757e-4
0.992,   5.706e-4
0.993,   5.711e-4
0.994,   5.690e-4
0.995,   5.659e-4
0.996,   5.617e-4
0.997,   5.570e-4
0.998,   5.578e-4
0.999,   5.554e-4
1.000,   5.529e-4
1.001,   5.492e-4
1.002,   5.457e-4
1.003,   5.426e-4
1.004,   5.411e-4
1.005,   5.409e-4
1.006,   5.369e-4
1.007,   5.350e-4
1.008,   5.337e-4
1.009,   5.294e-4
1.010,   5.300e-4
1.011,   5.280e-4
1.012,   5.254e-4
1.013,   5.237e-4
1.014,   5.215e-4
1.015,   5.206e-4
1.016,   5.177e-4
1.017,   5.170e-4
1.018,   5.158e-4
1.019,   5.129e-4
1.020,   5.098e-4
1.021,   5.100e-4
1.022,   5.099e-4
1.023,   5.095e-4
1.024,   5.065e-4
1.025,   5.028e-4
1.026,   5.024e-4
1.027,   5.017e-4
1.028,   4.998e-4
1.029,   5.013e-4
1.030,   4.987e-4
1.031,   4.967e-4
1.032,   4.967e-4
1.033,   4.950e-4
1.034,   4.972e-4
1.035,   4.960e-4
1.036,   4.905e-4
1.037,   4.907e-4
1.038,   4.885e-4
1.039,   4.905e-4
1.040,   4.908e-4
1.041,   4.886e-4
1.042,   4.893e-4
1.043,   4.885e-4
1.044,   4.863e-4
1.045,   4.873e-4
1.046,   4.854e-4
1.047,   4.855e-4
1.048,   4.852e-4
1.049,   4.830e-4
1.050,   4.826e-4
1.051,   4.831e-4
1.052,   4.822e-4
1.053,   4.820e-4
1.054,   4.801e-4
1.055,   4.796e-4
1.056,   4.800e-4
1.057,   4.795e-4
1.058,   4.796e-4
1.059,   4.778e-4
1.060,   4.789e-4
1.061,   4.778e-4
1.062,   4.778e-4
1.063,   4.796e-4
1.064,   4.780e-4
1.065,   4.774e-4
1.066,   4.776e-4
1.067,   4.760e-4
1.068,   4.769e-4
1.069,   4.775e-4
1.070,   4.755e-4
1.071,   4.763e-4
1.072,   4.751e-4
1.073,   4.767e-4
1.074,   4.784e-4
1.075,   4.784e-4
1.076,   4.764e-4
1.077,   4.775e-4
1.078,   4.761e-4
1.079,   4.772e-4
1.080,   4.786e-4
1.081,   4.766e-4
1.082,   4.776e-4
1.083,   4.776e-4
1.084,   4.775e-4
1.085,   4.786e-4
1.086,   4.806e-4
1.087,   4.806e-4
1.088,   4.799e-4
1.089,   4.799e-4
1.090,   4.805e-4
1.091,   4.802e-4
1.092,   4.819e-4
1.093,   4.818e-4
1.094,   4.824e-4
1.095,   4.832e-4
1.096,   4.817e-4
1.097,   4.840e-4
1.098,   4.843e-4
1.099,   4.836e-4
1.100,   4.856e-4
1.101,   4.836e-4
1.102,   4.833e-4
1.103,   4.855e-4
1.104,   4.869e-4
1.105,   4.858e-4
1.106,   4.872e-4
1.107,   4.849e-4
1.108,   4.850e-4
1.109,   4.863e-4
1.110,   4.848e-4
1.111,   4.865e-4
1.112,   4.880e-4
1.113,   4.855e-4
1.114,   4.870e-4
1.115,   4.898e-4
1.116,   4.871e-4
1.117,   4.883e-4
1.118,   4.893e-4
1.119,   4.881e-4
1.120,   4.896e-4
1.121,   4.894e-4
1.122,   4.879e-4
1.123,   4.894e-4
1.124,   4.909e-4
1.125,   4.905e-4
1.126,   4.915e-4
1.127,   4.905e-4
1.128,   4.870e-4
1.129,   4.904e-4
1.130,   4.885e-4
1.131,   4.885e-4
1.132,   4.902e-4
1.133,   4.896e-4
1.134,   4.903e-4
1.135,   4.920e-4
1.136,   4.900e-4
1.137,   4.903e-4
1.138,   4.923e-4
1.139,   4.914e-4
1.140,   4.921e-4
1.141,   4.930e-4
1.142,   4.912e-4
1.143,   4.945e-4
1.144,   4.944e-4
1.145,   4.914e-4
1.146,   4.960e-4
1.147,   4.953e-4
1.148,   4.947e-4
1.149,   4.962e-4
1.150,   4.959e-4
1.151,   4.944e-4
1.152,   4.981e-4
1.153,   4.989e-4
1.154,   4.981e-4
1.155,   4.992e-4
1.156,   4.995e-4
1.157,   4.998e-4
1.158,   5.015e-4
1.159,   5.008e-4
1.160,   5.028e-4
1.161,   5.021e-4
1.162,   5.006e-4
1.163,   5.014e-4
1.164,   5.019e-4
1.165,   5.007e-4
1.166,   5.042e-4
1.167,   5.057e-4
1.168,   5.035e-4
1.169,   5.043e-4
1.170,   5.080e-4
1.171,   5.062e-4
1.172,   5.065e-4
1.173,   5.070e-4
1.174,   5.059e-4
1.175,   5.097e-4
1.176,   5.110e-4
1.177,   5.100e-4
1.178,   5.140e-4
1.179,   5.130e-4
1.180,   5.130e-4
1.181,   5.134e-4
1.182,   5.171e-4
1.183,   5.164e-4
1.184,   5.174e-4
1.185,   5.168e-4
1.186,   5.171e-4
1.187,   5.187e-4
1.188,   5.199e-4
1.189,   5.204e-4
1.190,   5.241e-4
1.191,   5.228e-4
1.192,   5.217e-4
1.193,   5.243e-4
1.194,   5.234e-4
1.195,   5.250e-4
1.196,   5.265e-4
1.197,   5.250e-4
1.198,   5.241e-4
1.199,   5.283e-4
1.200,   5.300e-4
1.201,   5.323e-4
1.202,   5.358e-4
1.203,   5.320e-4
1.204,   5.324e-4
1.205,   5.371e-4
1.206,   5.358e-4
1.207,   5.402e-4
1.208,   5.408e-4
1.209,   5.377e-4
1.210,   5.404e-4
1.211,   5.426e-4
1.212,   5.427e-4
1.213,   5.479e-4
1.214,   5.450e-4
1.215,   5.448e-4
1.216,   5.492e-4
1.217,   5.479e-4
1.218,   5.507e-4
1.219,   5.544e-4
1.220,   5.528e-4
1.221,   5.525e-4
1.222,   5.561e-4
1.223,   5.554e-4
1.224,   5.591e-4
1.225,   5.608e-4
1.226,   5.591e-4
1.227,   5.622e-4
1.228,   5.648e-4
1.229,   5.644e-4
1.230,   5.676e-4
1.231,   5.674e-4
1.232,   5.665e-4
1.233,   5.691e-4
1.234,   5.709e-4
1.235,   5.710e-4
1.236,   5.750e-4
1.237,   5.728e-4
1.238,   5.719e-4
1.239,   5.763e-4
1.240,   5.776e-4
1.241,   5.789e-4
1.242,   5.830e-4
1.243,   5.843e-4
1.244,   5.819e-4
1.245,   5.866e-4
1.246,   5.881e-4
1.247,   5.881e-4
1.248,   5.910e-4
1.249,   5.886e-4
1.250,   5.909e-4
1.251,   5.951e-4
1.252,   5.970e-4
1.253,   5.968e-4
1.254,   5.986e-4
1.255,   5.992e-4
1.256,   6.012e-4
1.257,   6.054e-4
1.258,   6.052e-4
1.259,   6.061e-4
1.260,   6.057e-4
1.261,   6.063e-4
1.262,   6.122e-4
1.263,   6.126e-4
1.264,   6.136e-4
1.265,   6.177e-4
1.266,   6.163e-4
1.267,   6.159e-4
1.268,   6.212e-4
1.269,   6.230e-4
1.270,   6.224e-4
1.271,   6.258e-4
1.272,   6.244e-4
1.273,   6.268e-4
1.274,   6.335e-4
1.275,   6.311e-4
1.276,   6.336e-4
1.277,   6.354e-4
1.278,   6.344e-4
1.279,   6.403e-4
1.280,   6.435e-4
1.281,   6.426e-4
1.282,   6.460e-4
1.283,   6.467e-4
1.284,   6.468e-4
1.285,   6.518e-4
1.286,   6.531e-4
1.287,   6.526e-4
1.288,   6.535e-4
1.289,   6.536e-4
1.290,   6.561e-4
1.291,   6.609e-4
1.292,   6.622e-4
1.293,   6.626e-4
1.294,   6.648e-4
1.295,   6.649e-4
1.296,   6.661e-4
1.297,   6.736e-4
1.298,   6.709e-4
1.299,   6.739e-4
1.300,   6.767e-4
1.301,   6.757e-4
1.302,   6.768e-4
1.303,   6.816e-4
1.304,   6.839e-4
1.305,   6.865e-4
1.306,   6.880e-4
1.307,   6.858e-4
1.308,   6.909e-4
1.309,   6.946e-4
1.310,   6.957e-4
1.311,   6.992e-4
1.312,   6.998e-4
1.313,   7.022e-4
1.314,   7.051e-4
1.315,   7.077e-4
1.316,   7.098e-4
1.317,   7.159e-4
1.318,   7.135e-4
1.319,   7.141e-4
1.320,   7.202e-4
1.321,   7.213e-4
1.322,   7.254e-4
1.323,   7.282e-4
1.324,   7.261e-4
1.325,   7.305e-4
1.326,   7.332e-4
1.327,   7.374e-4
1.328,   7.412e-4
1.329,   7.434e-4
1.330,   7.427e-4
1.331,   7.445e-4
1.332,   7.501e-4
1.333,   7.522e-4
1.334,   7.550e-4
1.335,   7.606e-4
1.336,   7.589e-4
1.337,   7.633e-4
1.338,   7.693e-4
1.339,   7.734e-4
1.340,   7.772e-4
1.341,   7.800e-4
1.342,   7.773e-4
1.343,   7.852e-4
1.344,   7.918e-4
1.345,   7.925e-4
1.346,   7.947e-4
1.347,   7.965e-4
1.348,   7.980e-4
1.349,   8.048e-4
1.350,   8.077e-4
1.351,   8.097e-4
1.352,   8.165e-4
1.353,   8.167e-4
1.354,   8.212e-4
1.355,   8.266e-4
1.356,   8.251e-4
1.357,   8.337e-4
1.358,   8.389e-4
1.359,   8.380e-4
1.360,   8.445e-4
1.361,   8.509e-4
1.362,   8.496e-4
1.363,   8.567e-4
1.364,   8.632e-4
1.365,   8.616e-4
1.366,   8.704e-4
1.367,   8.747e-4
1.368,   8.763e-4
1.369,   8.798e-4
1.370,   8.850e-4
1.371,   8.859e-4
1.372,   8.981e-4
1.373,   9.011e-4
1.374,   9.037e-4
1.375,   9.135e-4
1.376,   9.136e-4
1.377,   9.196e-4
1.378,   9.293e-4
1.379,   9.322e-4
1.380,   9.402e-4
1.381,   9.508e-4
1.382,   9.475e-4
1.383,   9.571e-4
1.384,   9.674e-4
1.385,   9.660e-4
1.386,   9.770e-4
1.387,   9.849e-4
1.388,   9.864e-4
1.389,   9.983e-4
1.390,   1.004e-3
1.391,   1.007e-3
1.392,   1.024e-3
1.393,   1.027e-3
1.394,   1.033e-3
1.395,   1.039e-3
1.396,   1.044e-3
1.397,   1.054e-3
1.398,   1.067e-3
1.399,   1.076e-3
1.400,   1.086e-3
1.401,   1.096e-3
1.402,   1.101e-3
1.403,   1.112e-3
1.404,   1.125e-3
1.405,   1.132e-3
1.406,   1.142e-3
1.407,   1.158e-3
1.408,   1.165e-3
1.409,   1.181e-3
1.410,   1.195e-3
1.411,   1.200e-3
1.412,   1.219e-3
1.413,   1.235e-3
1.414,   1.244e-3
1.415,   1.266e-3
1.416,   1.278e-3
1.417,   1.296e-3
1.418,   1.314e-3
1.419,   1.335e-3
1.420,   1.357e-3
1.421,   1.378e-3
1.422,   1.395e-3
1.423,   1.416e-3
1.424,   1.439e-3
1.425,   1.467e-3
1.426,   1.492e-3
1.427,   1.524e-3
1.428,   1.548e-3
1.429,   1.571e-3
1.430,   1.611e-3
1.431,   1.642e-3
1.432,   1.679e-3
1.433,   1.718e-3
1.434,   1.742e-3
1.435,   1.784e-3
1.436,   1.827e-3
1.437,   1.865e-3
1.438,   1.911e-3
1.439,   1.963e-3
1.440,   1.995e-3
1.441,   2.049e-3
1.442,   2.101e-3
1.443,   2.144e-3
1.444,   2.211e-3
1.445,   2.272e-3
1.446,   2.319e-3
1.447,   2.387e-3
1.448,   2.454e-3
1.449,   2.514e-3
1.450,   2.598e-3
1.451,   2.661e-3
1.452,   2.713e-3
1.453,   2.805e-3
1.454,   2.868e-3
1.455,   2.949e-3
1.456,   3.038e-3
1.457,   3.114e-3
1.458,   3.196e-3
1.459,   3.290e-3
1.460,   3.381e-3
1.461,   3.475e-3
1.462,   3.589e-3
1.463,   3.678e-3
1.464,   3.796e-3
1.465,   3.878e-3
1.466,   3.974e-3
1.467,   4.120e-3
1.468,   4.238e-3
1.469,   4.339e-3
1.470,   4.460e-3
1.471,   4.581e-3
1.472,   4.707e-3
1.473,   4.849e-3
1.474,   4.965e-3
1.475,   5.062e-3
1.476,   5.199e-3
1.477,   5.344e-3
1.478,   5.497e-3
1.479,   5.649e-3
1.480,   5.780e-3
1.481,   5.898e-3
1.482,   6.061e-3
1.483,   6.219e-3
1.484,   6.337e-3
1.485,   6.525e-3
1.486,   6.662e-3
1.487,   6.800e-3
1.488,   6.929e-3
1.489,   7.089e-3
1.490,   7.222e-3
1.491,   7.386e-3
1.492,   7.521e-3
1.493,   7.687e-3
1.494,   7.962e-3
1.495,   8.119e-3
1.496,   8.280e-3
1.497,   8.404e-3
1.498,   8.504e-3
1.499,   8.597e-3
1.500,   8.760e-3
1.501,   8.941e-3
1.502,   9.076e-3
1.503,   9.107e-3
1.504,   9.172e-3
1.505,   9.597e-3
1.506,   9.735e-3
1.507,   9.803e-3
1.508,   9.920e-3
1.509,   9.928e-3
1.510,   9.974e-3
1.511,   1.003e-2
1.512,   1.005e-2
1.513,   1.006e-2
1.514,   1.007e-2
1.515,   1.007e-2
1.516,   1.007e-2
1.517,   1.007e-2
1.518,   1.007e-2
1.519,   1.007e-2
1.520,   1.007e-2
1.521,   1.007e-2