File: Experimental Records and Raw Data/batch5/final400/B5_BEST_400_#1_High_Quality(#18)-186mV.txt
May 31, 2023   16:40:04
Linear Sweep Voltammetry
File: d:\current work\al_oer\electrochemical test data\batch 5\400\B5_BEST_400_#1_High_Quality(#18)-186mV.txt
Data Source:  Experiment
Instrument Model:  CHI660E
Header:
Note:

Init E (V) = 0.900

Final E (V) = 1.487

Scan Rate (V/s) = 0.010
Sample Interval (V) = 0.001
Quiet Time (sec) = 2
Sensitivity (A/V) = 0.001
Comp R (ohm) = 6.0

Results:

Channel 1:

Potential/V, Current/A
0.900,   4.216e-4
0.901,   4.800e-4
0.902,   4.804e-4
0.903,   5.082e-4
0.904,   5.061e-4
0.905,   4.948e-4
0.906,   4.883e-4
0.907,   4.747e-4
0.908,   4.895e-4
0.909,   4.978e-4
0.910,   4.794e-4
0.911,   4.637e-4
0.912,   4.562e-4
0.913,   4.821e-4
0.914,   4.814e-4
0.915,   4.625e-4
0.916,   4.561e-4
0.917,   4.408e-4
0.918,   4.683e-4
0.919,   4.709e-4
0.920,   4.494e-4
0.921,   4.417e-4
0.922,   4.328e-4
0.923,   4.536e-4
0.924,   4.589e-4
0.925,   4.368e-4
0.926,   4.302e-4
0.927,   4.207e-4
0.928,   4.428e-4
0.929,   4.511e-4
0.930,   4.265e-4
0.931,   4.216e-4
0.932,   4.128e-4
0.933,   4.301e-4
0.934,   4.444e-4
0.935,   4.236e-4
0.936,   4.079e-4
0.937,   4.033e-4
0.938,   4.230e-4
0.939,   4.290e-4
0.940,   4.102e-4
0.941,   4.075e-4
0.942,   3.966e-4
0.943,   4.024e-4
0.944,   4.176e-4
0.945,   4.034e-4
0.946,   4.070e-4
0.947,   3.980e-4
0.948,   4.021e-4
0.949,   4.147e-4
0.950,   3.980e-4
0.951,   3.969e-4
0.952,   3.853e-4
0.953,   3.922e-4
0.954,   4.025e-4
0.955,   3.974e-4
0.956,   3.943e-4
0.957,   3.856e-4
0.958,   3.865e-4
0.959,   3.938e-4
0.960,   4.009e-4
0.961,   3.819e-4
0.962,   3.804e-4
0.963,   3.782e-4
0.964,   3.900e-4
0.965,   3.910e-4
0.966,   3.902e-4
0.967,   3.747e-4
0.968,   3.734e-4
0.969,   3.876e-4
0.970,   3.843e-4
0.971,   3.846e-4
0.972,   3.748e-4
0.973,   3.739e-4
0.974,   3.857e-4
0.975,   3.801e-4
0.976,   3.756e-4
0.977,   3.703e-4
0.978,   3.660e-4
0.979,   3.821e-4
0.980,   3.888e-4
0.981,   3.737e-4
0.982,   3.602e-4
0.983,   3.608e-4
0.984,   3.804e-4
0.985,   3.793e-4
0.986,   3.715e-4
0.987,   3.606e-4
0.988,   3.572e-4
0.989,   3.742e-4
0.990,   3.733e-4
0.991,   3.704e-4
0.992,   3.653e-4
0.993,   3.558e-4
0.994,   3.687e-4
0.995,   3.714e-4
0.996,   3.723e-4
0.997,   3.602e-4
0.998,   3.514e-4
0.999,   3.694e-4
1.000,   3.710e-4
1.001,   3.645e-4
1.002,   3.568e-4
1.003,   3.493e-4
1.004,   3.665e-4
1.005,   3.695e-4
1.006,   3.667e-4
1.007,   3.529e-4
1.008,   3.475e-4
1.009,   3.616e-4
1.010,   3.715e-4
1.011,   3.652e-4
1.012,   3.541e-4
1.013,   3.453e-4
1.014,   3.600e-4
1.015,   3.634e-4
1.016,   3.687e-4
1.017,   3.528e-4
1.018,   3.468e-4
1.019,   3.608e-4
1.020,   3.628e-4
1.021,   3.623e-4
1.022,   3.513e-4
1.023,   3.462e-4
1.024,   3.645e-4
1.025,   3.623e-4
1.026,   3.574e-4
1.027,   3.512e-4
1.028,   3.420e-4
1.029,   3.603e-4
1.030,   3.710e-4
1.031,   3.535e-4
1.032,   3.499e-4
1.033,   3.419e-4
1.034,   3.563e-4
1.035,   3.683e-4
1.036,   3.607e-4
1.037,   3.434e-4
1.038,   3.424e-4
1.039,   3.610e-4
1.040,   3.618e-4
1.041,   3.561e-4
1.042,   3.480e-4
1.043,   3.403e-4
1.044,   3.597e-4
1.045,   3.661e-4
1.046,   3.560e-4
1.047,   3.481e-4
1.048,   3.394e-4
1.049,   3.622e-4
1.050,   3.620e-4
1.051,   3.559e-4
1.052,   3.492e-4
1.053,   3.429e-4
1.054,   3.552e-4
1.055,   3.663e-4
1.056,   3.570e-4
1.057,   3.496e-4
1.058,   3.418e-4
1.059,   3.572e-4
1.060,   3.656e-4
1.061,   3.604e-4
1.062,   3.490e-4
1.063,   3.420e-4
1.064,   3.518e-4
1.065,   3.643e-4
1.066,   3.663e-4
1.067,   3.498e-4
1.068,   3.437e-4
1.069,   3.551e-4
1.070,   3.657e-4
1.071,   3.598e-4
1.072,   3.547e-4
1.073,   3.447e-4
1.074,   3.555e-4
1.075,   3.719e-4
1.076,   3.644e-4
1.077,   3.513e-4
1.078,   3.457e-4
1.079,   3.588e-4
1.080,   3.695e-4
1.081,   3.647e-4
1.082,   3.518e-4
1.083,   3.462e-4
1.084,   3.621e-4
1.085,   3.663e-4
1.086,   3.665e-4
1.087,   3.558e-4
1.088,   3.489e-4
1.089,   3.590e-4
1.090,   3.760e-4
1.091,   3.645e-4
1.092,   3.588e-4
1.093,   3.512e-4
1.094,   3.633e-4
1.095,   3.769e-4
1.096,   3.710e-4
1.097,   3.582e-4
1.098,   3.537e-4
1.099,   3.624e-4
1.100,   3.784e-4
1.101,   3.782e-4
1.102,   3.625e-4
1.103,   3.550e-4
1.104,   3.610e-4
1.105,   3.856e-4
1.106,   3.850e-4
1.107,   3.653e-4
1.108,   3.525e-4
1.109,   3.652e-4
1.110,   3.889e-4
1.111,   3.845e-4
1.112,   3.640e-4
1.113,   3.623e-4
1.114,   3.644e-4
1.115,   3.932e-4
1.116,   3.888e-4
1.117,   3.720e-4
1.118,   3.617e-4
1.119,   3.696e-4
1.120,   3.904e-4
1.121,   3.986e-4
1.122,   3.771e-4
1.123,   3.636e-4
1.124,   3.717e-4
1.125,   3.970e-4
1.126,   3.953e-4
1.127,   3.871e-4
1.128,   3.674e-4
1.129,   3.760e-4
1.130,   4.012e-4
1.131,   4.003e-4
1.132,   3.844e-4
1.133,   3.769e-4
1.134,   3.769e-4
1.135,   4.074e-4
1.136,   4.099e-4
1.137,   3.912e-4
1.138,   3.745e-4
1.139,   3.833e-4
1.140,   4.064e-4
1.141,   4.175e-4
1.142,   3.995e-4
1.143,   3.791e-4
1.144,   3.788e-4
1.145,   4.103e-4
1.146,   4.175e-4
1.147,   4.082e-4
1.148,   3.868e-4
1.149,   3.815e-4
1.150,   4.109e-4
1.151,   4.209e-4
1.152,   4.076e-4
1.153,   3.960e-4
1.154,   3.840e-4
1.155,   4.160e-4
1.156,   4.311e-4
1.157,   4.006e-4
1.158,   3.961e-4
1.159,   3.922e-4
1.160,   4.194e-4
1.161,   4.354e-4
1.162,   3.992e-4
1.163,   4.000e-4
1.164,   3.961e-4
1.165,   4.234e-4
1.166,   4.419e-4
1.167,   4.155e-4
1.168,   4.003e-4
1.169,   3.964e-4
1.170,   4.186e-4
1.171,   4.469e-4
1.172,   4.227e-4
1.173,   4.029e-4
1.174,   3.971e-4
1.175,   4.319e-4
1.176,   4.440e-4
1.177,   4.263e-4
1.178,   4.093e-4
1.179,   4.020e-4
1.180,   4.300e-4
1.181,   4.532e-4
1.182,   4.184e-4
1.183,   4.192e-4
1.184,   4.090e-4
1.185,   4.343e-4
1.186,   4.597e-4
1.187,   4.218e-4
1.188,   4.232e-4
1.189,   4.098e-4
1.190,   4.352e-4
1.191,   4.663e-4
1.192,   4.363e-4
1.193,   4.222e-4
1.194,   4.176e-4
1.195,   4.367e-4
1.196,   4.731e-4
1.197,   4.543e-4
1.198,   4.216e-4
1.199,   4.254e-4
1.200,   4.403e-4
1.201,   4.778e-4
1.202,   4.559e-4
1.203,   4.351e-4
1.204,   4.280e-4
1.205,   4.465e-4
1.206,   4.769e-4
1.207,   4.677e-4
1.208,   4.397e-4
1.209,   4.309e-4
1.210,   4.561e-4
1.211,   4.795e-4
1.212,   4.599e-4
1.213,   4.530e-4
1.214,   4.404e-4
1.215,   4.660e-4
1.216,   4.893e-4
1.217,   4.699e-4
1.218,   4.569e-4
1.219,   4.524e-4
1.220,   4.687e-4
1.221,   4.917e-4
1.222,   4.862e-4
1.223,   4.647e-4
1.224,   4.533e-4
1.225,   4.704e-4
1.226,   5.096e-4
1.227,   4.770e-4
1.228,   4.800e-4
1.229,   4.703e-4
1.230,   4.751e-4
1.231,   5.192e-4
1.232,   5.014e-4
1.233,   4.716e-4
1.234,   4.702e-4
1.235,   4.861e-4
1.236,   5.230e-4
1.237,   5.149e-4
1.238,   4.918e-4
1.239,   4.725e-4
1.240,   4.905e-4
1.241,   5.306e-4
1.242,   5.123e-4
1.243,   5.024e-4
1.244,   4.830e-4
1.245,   4.976e-4
1.246,   5.522e-4
1.247,   5.253e-4
1.248,   4.998e-4
1.249,   4.947e-4
1.250,   5.070e-4
1.251,   5.556e-4
1.252,   5.507e-4
1.253,   5.055e-4
1.254,   5.028e-4
1.255,   5.137e-4
1.256,   5.593e-4
1.257,   5.648e-4
1.258,   5.197e-4
1.259,   5.063e-4
1.260,   5.214e-4
1.261,   5.660e-4
1.262,   5.689e-4
1.263,   5.393e-4
1.264,   5.219e-4
1.265,   5.266e-4
1.266,   5.831e-4
1.267,   5.728e-4
1.268,   5.521e-4
1.269,   5.285e-4
1.270,   5.388e-4
1.271,   5.935e-4
1.272,   5.999e-4
1.273,   5.570e-4
1.274,   5.293e-4
1.275,   5.460e-4
1.276,   5.939e-4
1.277,   5.992e-4
1.278,   5.856e-4
1.279,   5.525e-4
1.280,   5.522e-4
1.281,   6.086e-4
1.282,   6.065e-4
1.283,   5.806e-4
1.284,   5.767e-4
1.285,   5.703e-4
1.286,   6.214e-4
1.287,   6.346e-4
1.288,   5.892e-4
1.289,   5.847e-4
1.290,   5.830e-4
1.291,   6.351e-4
1.292,   6.562e-4
1.293,   6.214e-4
1.294,   5.827e-4
1.295,   5.892e-4
1.296,   6.351e-4
1.297,   6.503e-4
1.298,   6.396e-4
1.299,   6.146e-4
1.300,   6.068e-4
1.301,   6.608e-4
1.302,   6.829e-4
1.303,   6.458e-4
1.304,   6.080e-4
1.305,   6.212e-4
1.306,   6.726e-4
1.307,   7.061e-4
1.308,   6.801e-4
1.309,   6.266e-4
1.310,   6.246e-4
1.311,   6.728e-4
1.312,   7.163e-4
1.313,   6.993e-4
1.314,   6.453e-4
1.315,   6.419e-4
1.316,   6.998e-4
1.317,   7.110e-4
1.318,   7.091e-4
1.319,   6.765e-4
1.320,   6.624e-4
1.321,   7.138e-4
1.322,   7.499e-4
1.323,   7.015e-4
1.324,   6.980e-4
1.325,   6.889e-4
1.326,   7.154e-4
1.327,   7.814e-4
1.328,   7.380e-4
1.329,   7.021e-4
1.330,   6.925e-4
1.331,   7.527e-4
1.332,   8.006e-4
1.333,   7.736e-4
1.334,   7.178e-4
1.335,   7.073e-4
1.336,   7.674e-4
1.337,   8.282e-4
1.338,   7.924e-4
1.339,   7.479e-4
1.340,   7.244e-4
1.341,   7.824e-4
1.342,   8.409e-4
1.343,   8.281e-4
1.344,   7.757e-4
1.345,   7.531e-4
1.346,   8.102e-4
1.347,   8.566e-4
1.348,   8.350e-4
1.349,   8.050e-4
1.350,   7.879e-4
1.351,   8.258e-4
1.352,   8.909e-4
1.353,   8.544e-4
1.354,   8.380e-4
1.355,   8.158e-4
1.356,   8.560e-4
1.357,   9.321e-4
1.358,   8.809e-4
1.359,   8.466e-4
1.360,   8.530e-4
1.361,   8.921e-4
1.362,   9.721e-4
1.363,   9.403e-4
1.364,   8.708e-4
1.365,   8.678e-4
1.366,   9.196e-4
1.367,   9.977e-4
1.368,   9.709e-4
1.369,   9.340e-4
1.370,   8.952e-4
1.371,   9.490e-4
1.372,   1.023e-3
1.373,   1.019e-3
1.374,   9.769e-4
1.375,   9.506e-4
1.376,   9.882e-4
1.377,   1.077e-3
1.378,   1.051e-3
1.379,   1.003e-3
1.380,   9.979e-4
1.381,   1.051e-3
1.382,   1.123e-3
1.383,   1.115e-3
1.384,   1.037e-3
1.385,   1.051e-3
1.386,   1.089e-3
1.387,   1.194e-3
1.388,   1.178e-3
1.389,   1.145e-3
1.390,   1.119e-3
1.391,   1.153e-3
1.392,   1.233e-3
1.393,   1.229e-3
1.394,   1.223e-3
1.395,   1.198e-3
1.396,   1.252e-3
1.397,   1.352e-3
1.398,   1.320e-3
1.399,   1.290e-3
1.400,   1.285e-3
1.401,   1.322e-3
1.402,   1.456e-3
1.403,   1.474e-3
1.404,   1.420e-3
1.405,   1.391e-3
1.406,   1.442e-3
1.407,   1.563e-3
1.408,   1.614e-3
1.409,   1.572e-3
1.410,   1.548e-3
1.411,   1.596e-3
1.412,   1.750e-3
1.413,   1.765e-3
1.414,   1.721e-3
1.415,   1.759e-3
1.416,   1.794e-3
1.417,   1.988e-3
1.418,   2.033e-3
1.419,   1.997e-3
1.420,   2.003e-3
1.421,   2.034e-3
1.422,   2.229e-3
1.423,   2.336e-3
1.424,   2.334e-3
1.425,   2.315e-3
1.426,   2.398e-3
1.427,   2.618e-3
1.428,   2.676e-3
1.429,   2.771e-3
1.430,   2.800e-3
1.431,   2.847e-3
1.432,   3.139e-3
1.433,   3.328e-3
1.434,   3.258e-3
1.435,   3.281e-3
1.436,   3.386e-3
1.437,   3.760e-3
1.438,   4.049e-3
1.439,   4.041e-3
1.440,   4.046e-3
1.441,   4.139e-3
1.442,   4.526e-3
1.443,   4.954e-3
1.444,   5.085e-3
1.445,   5.044e-3
1.446,   5.184e-3
1.447,   5.763e-3
1.448,   6.059e-3
1.449,   6.185e-3
1.450,   6.387e-3
1.451,   6.461e-3
1.452,   7.067e-3
1.453,   7.604e-3
1.454,   7.623e-3
1.455,   7.687e-3
1.456,   7.701e-3
1.457,   8.286e-3
1.458,   8.816e-3
1.459,   9.005e-3
1.460,   9.009e-3
1.461,   8.864e-3
1.462,   9.242e-3
1.463,   9.493e-3
1.464,   9.561e-3
1.465,   9.578e-3
1.466,   9.404e-3
1.467,   9.690e-3
1.468,   9.835e-3
1.469,   9.892e-3
1.470,   9.947e-3
1.471,   9.954e-3
1.472,   1.006e-2
1.473,   1.007e-2
1.474,   1.007e-2
1.475,   1.007e-2
1.476,   1.007e-2
1.477,   1.007e-2
1.478,   1.007e-2
1.479,   1.007e-2
1.480,   1.007e-2
1.481,   1.007e-2
1.482,   1.007e-2
1.483,   1.007e-2
1.484,   1.007e-2
1.485,   1.007e-2
1.486,   1.007e-2
1.487,   1.007e-2