File: Experimental Records and Raw Data/batch5/final400/B5_BEST_400_#1_High_Quality(#32)-214mV.txt
May 31, 2023   14:04:35
Linear Sweep Voltammetry
File: d:\current work\al_oer\electrochemical test data\batch 5\400\B5_BEST_400_#1_High_Quality(#32)-214mV.txt
Data Source:  Experiment
Instrument Model:  CHI660E
Header:
Note:

Init E (V) = 0.898

Final E (V) = 1.525

Scan Rate (V/s) = 0.010
Sample Interval (V) = 0.001
Quiet Time (sec) = 2
Sensitivity (A/V) = 0.001
Comp R (ohm) = 6.0

Results:

Channel 1:

Potential/V, Current/A
0.898,   3.478e-4
0.899,   3.902e-4
0.900,   4.018e-4
0.901,   4.034e-4
0.902,   4.001e-4
0.903,   3.962e-4
0.904,   3.925e-4
0.905,   3.914e-4
0.906,   3.899e-4
0.907,   3.868e-4
0.908,   3.846e-4
0.909,   3.824e-4
0.910,   3.820e-4
0.911,   3.847e-4
0.912,   3.858e-4
0.913,   3.815e-4
0.914,   3.750e-4
0.915,   3.730e-4
0.916,   3.707e-4
0.917,   3.698e-4
0.918,   3.661e-4
0.919,   3.647e-4
0.920,   3.639e-4
0.921,   3.633e-4
0.922,   3.676e-4
0.923,   3.654e-4
0.924,   3.613e-4
0.925,   3.568e-4
0.926,   3.559e-4
0.927,   3.545e-4
0.928,   3.556e-4
0.929,   3.503e-4
0.930,   3.433e-4
0.931,   3.458e-4
0.932,   3.506e-4
0.933,   3.519e-4
0.934,   3.501e-4
0.935,   3.464e-4
0.936,   3.424e-4
0.937,   3.404e-4
0.938,   3.386e-4
0.939,   3.388e-4
0.940,   3.348e-4
0.941,   3.339e-4
0.942,   3.338e-4
0.943,   3.381e-4
0.944,   3.402e-4
0.945,   3.378e-4
0.946,   3.339e-4
0.947,   3.293e-4
0.948,   3.290e-4
0.949,   3.302e-4
0.950,   3.279e-4
0.951,   3.238e-4
0.952,   3.218e-4
0.953,   3.242e-4
0.954,   3.287e-4
0.955,   3.278e-4
0.956,   3.272e-4
0.957,   3.233e-4
0.958,   3.203e-4
0.959,   3.187e-4
0.960,   3.185e-4
0.961,   3.166e-4
0.962,   3.151e-4
0.963,   3.138e-4
0.964,   3.164e-4
0.965,   3.203e-4
0.966,   3.208e-4
0.967,   3.180e-4
0.968,   3.142e-4
0.969,   3.123e-4
0.970,   3.122e-4
0.971,   3.101e-4
0.972,   3.091e-4
0.973,   3.082e-4
0.974,   3.066e-4
0.975,   3.096e-4
0.976,   3.137e-4
0.977,   3.126e-4
0.978,   3.091e-4
0.979,   3.052e-4
0.980,   3.048e-4
0.981,   3.052e-4
0.982,   3.040e-4
0.983,   3.021e-4
0.984,   3.029e-4
0.985,   2.994e-4
0.986,   3.038e-4
0.987,   3.066e-4
0.988,   3.062e-4
0.989,   3.028e-4
0.990,   3.011e-4
0.991,   2.993e-4
0.992,   3.000e-4
0.993,   2.989e-4
0.994,   2.965e-4
0.995,   2.959e-4
0.996,   2.970e-4
0.997,   3.004e-4
0.998,   3.010e-4
0.999,   3.010e-4
1.000,   2.981e-4
1.001,   2.944e-4
1.002,   2.959e-4
1.003,   2.960e-4
1.004,   2.945e-4
1.005,   2.945e-4
1.006,   2.916e-4
1.007,   2.930e-4
1.008,   2.951e-4
1.009,   2.950e-4
1.010,   2.965e-4
1.011,   2.932e-4
1.012,   2.911e-4
1.013,   2.920e-4
1.014,   2.914e-4
1.015,   2.903e-4
1.016,   2.885e-4
1.017,   2.880e-4
1.018,   2.882e-4
1.019,   2.907e-4
1.020,   2.913e-4
1.021,   2.942e-4
1.022,   2.900e-4
1.023,   2.889e-4
1.024,   2.869e-4
1.025,   2.881e-4
1.026,   2.859e-4
1.027,   2.868e-4
1.028,   2.859e-4
1.029,   2.874e-4
1.030,   2.894e-4
1.031,   2.914e-4
1.032,   2.898e-4
1.033,   2.858e-4
1.034,   2.851e-4
1.035,   2.849e-4
1.036,   2.841e-4
1.037,   2.836e-4
1.038,   2.832e-4
1.039,   2.833e-4
1.040,   2.858e-4
1.041,   2.875e-4
1.042,   2.885e-4
1.043,   2.857e-4
1.044,   2.833e-4
1.045,   2.823e-4
1.046,   2.829e-4
1.047,   2.836e-4
1.048,   2.824e-4
1.049,   2.829e-4
1.050,   2.820e-4
1.051,   2.828e-4
1.052,   2.855e-4
1.053,   2.867e-4
1.054,   2.846e-4
1.055,   2.813e-4
1.056,   2.810e-4
1.057,   2.825e-4
1.058,   2.817e-4
1.059,   2.801e-4
1.060,   2.788e-4
1.061,   2.800e-4
1.062,   2.828e-4
1.063,   2.878e-4
1.064,   2.859e-4
1.065,   2.845e-4
1.066,   2.794e-4
1.067,   2.819e-4
1.068,   2.804e-4
1.069,   2.796e-4
1.070,   2.793e-4
1.071,   2.783e-4
1.072,   2.809e-4
1.073,   2.839e-4
1.074,   2.866e-4
1.075,   2.845e-4
1.076,   2.811e-4
1.077,   2.813e-4
1.078,   2.813e-4
1.079,   2.802e-4
1.080,   2.805e-4
1.081,   2.801e-4
1.082,   2.784e-4
1.083,   2.818e-4
1.084,   2.835e-4
1.085,   2.865e-4
1.086,   2.853e-4
1.087,   2.817e-4
1.088,   2.810e-4
1.089,   2.810e-4
1.090,   2.807e-4
1.091,   2.812e-4
1.092,   2.789e-4
1.093,   2.797e-4
1.094,   2.815e-4
1.095,   2.865e-4
1.096,   2.862e-4
1.097,   2.842e-4
1.098,   2.822e-4
1.099,   2.816e-4
1.100,   2.825e-4
1.101,   2.817e-4
1.102,   2.825e-4
1.103,   2.799e-4
1.104,   2.836e-4
1.105,   2.836e-4
1.106,   2.858e-4
1.107,   2.880e-4
1.108,   2.860e-4
1.109,   2.838e-4
1.110,   2.822e-4
1.111,   2.837e-4
1.112,   2.842e-4
1.113,   2.808e-4
1.114,   2.825e-4
1.115,   2.858e-4
1.116,   2.874e-4
1.117,   2.909e-4
1.118,   2.911e-4
1.119,   2.873e-4
1.120,   2.855e-4
1.121,   2.858e-4
1.122,   2.870e-4
1.123,   2.871e-4
1.124,   2.846e-4
1.125,   2.854e-4
1.126,   2.872e-4
1.127,   2.916e-4
1.128,   2.912e-4
1.129,   2.931e-4
1.130,   2.899e-4
1.131,   2.889e-4
1.132,   2.885e-4
1.133,   2.892e-4
1.134,   2.892e-4
1.135,   2.870e-4
1.136,   2.884e-4
1.137,   2.919e-4
1.138,   2.924e-4
1.139,   2.950e-4
1.140,   2.947e-4
1.141,   2.926e-4
1.142,   2.900e-4
1.143,   2.906e-4
1.144,   2.914e-4
1.145,   2.891e-4
1.146,   2.905e-4
1.147,   2.907e-4
1.148,   2.926e-4
1.149,   2.968e-4
1.150,   2.974e-4
1.151,   2.974e-4
1.152,   2.938e-4
1.153,   2.923e-4
1.154,   2.929e-4
1.155,   2.930e-4
1.156,   2.931e-4
1.157,   2.944e-4
1.158,   2.921e-4
1.159,   2.963e-4
1.160,   2.987e-4
1.161,   3.004e-4
1.162,   2.968e-4
1.163,   2.961e-4
1.164,   2.936e-4
1.165,   2.956e-4
1.166,   2.950e-4
1.167,   2.946e-4
1.168,   2.970e-4
1.169,   2.957e-4
1.170,   2.998e-4
1.171,   3.021e-4
1.172,   3.028e-4
1.173,   2.996e-4
1.174,   2.971e-4
1.175,   2.969e-4
1.176,   2.983e-4
1.177,   2.976e-4
1.178,   2.985e-4
1.179,   2.984e-4
1.180,   2.998e-4
1.181,   3.047e-4
1.182,   3.068e-4
1.183,   3.064e-4
1.184,   3.014e-4
1.185,   2.989e-4
1.186,   3.004e-4
1.187,   3.017e-4
1.188,   3.020e-4
1.189,   3.007e-4
1.190,   3.000e-4
1.191,   3.034e-4
1.192,   3.090e-4
1.193,   3.092e-4
1.194,   3.087e-4
1.195,   3.056e-4
1.196,   3.037e-4
1.197,   3.042e-4
1.198,   3.064e-4
1.199,   3.052e-4
1.200,   3.034e-4
1.201,   3.030e-4
1.202,   3.085e-4
1.203,   3.114e-4
1.204,   3.136e-4
1.205,   3.136e-4
1.206,   3.086e-4
1.207,   3.088e-4
1.208,   3.079e-4
1.209,   3.096e-4
1.210,   3.094e-4
1.211,   3.079e-4
1.212,   3.091e-4
1.213,   3.126e-4
1.214,   3.179e-4
1.215,   3.173e-4
1.216,   3.149e-4
1.217,   3.124e-4
1.218,   3.120e-4
1.219,   3.128e-4
1.220,   3.145e-4
1.221,   3.121e-4
1.222,   3.135e-4
1.223,   3.141e-4
1.224,   3.178e-4
1.225,   3.213e-4
1.226,   3.215e-4
1.227,   3.214e-4
1.228,   3.155e-4
1.229,   3.159e-4
1.230,   3.182e-4
1.231,   3.184e-4
1.232,   3.187e-4
1.233,   3.173e-4
1.234,   3.208e-4
1.235,   3.233e-4
1.236,   3.248e-4
1.237,   3.263e-4
1.238,   3.230e-4
1.239,   3.203e-4
1.240,   3.206e-4
1.241,   3.235e-4
1.242,   3.222e-4
1.243,   3.231e-4
1.244,   3.234e-4
1.245,   3.235e-4
1.246,   3.290e-4
1.247,   3.313e-4
1.248,   3.321e-4
1.249,   3.266e-4
1.250,   3.287e-4
1.251,   3.266e-4
1.252,   3.242e-4
1.253,   3.274e-4
1.254,   3.268e-4
1.255,   3.311e-4
1.256,   3.317e-4
1.257,   3.359e-4
1.258,   3.382e-4
1.259,   3.365e-4
1.260,   3.335e-4
1.261,   3.334e-4
1.262,   3.331e-4
1.263,   3.321e-4
1.264,   3.343e-4
1.265,   3.354e-4
1.266,   3.360e-4
1.267,   3.394e-4
1.268,   3.411e-4
1.269,   3.425e-4
1.270,   3.416e-4
1.271,   3.395e-4
1.272,   3.387e-4
1.273,   3.394e-4
1.274,   3.382e-4
1.275,   3.405e-4
1.276,   3.405e-4
1.277,   3.403e-4
1.278,   3.456e-4
1.279,   3.511e-4
1.280,   3.503e-4
1.281,   3.493e-4
1.282,   3.452e-4
1.283,   3.438e-4
1.284,   3.448e-4
1.285,   3.491e-4
1.286,   3.468e-4
1.287,   3.471e-4
1.288,   3.454e-4
1.289,   3.528e-4
1.290,   3.582e-4
1.291,   3.590e-4
1.292,   3.591e-4
1.293,   3.535e-4
1.294,   3.511e-4
1.295,   3.535e-4
1.296,   3.563e-4
1.297,   3.537e-4
1.298,   3.534e-4
1.299,   3.578e-4
1.300,   3.621e-4
1.301,   3.675e-4
1.302,   3.678e-4
1.303,   3.655e-4
1.304,   3.613e-4
1.305,   3.614e-4
1.306,   3.611e-4
1.307,   3.660e-4
1.308,   3.633e-4
1.309,   3.638e-4
1.310,   3.637e-4
1.311,   3.731e-4
1.312,   3.765e-4
1.313,   3.780e-4
1.314,   3.715e-4
1.315,   3.692e-4
1.316,   3.712e-4
1.317,   3.766e-4
1.318,   3.739e-4
1.319,   3.706e-4
1.320,   3.737e-4
1.321,   3.786e-4
1.322,   3.845e-4
1.323,   3.881e-4
1.324,   3.865e-4
1.325,   3.858e-4
1.326,   3.819e-4
1.327,   3.830e-4
1.328,   3.852e-4
1.329,   3.856e-4
1.330,   3.860e-4
1.331,   3.858e-4
1.332,   3.921e-4
1.333,   3.980e-4
1.334,   3.987e-4
1.335,   3.991e-4
1.336,   3.947e-4
1.337,   3.915e-4
1.338,   3.959e-4
1.339,   3.982e-4
1.340,   3.965e-4
1.341,   3.969e-4
1.342,   4.007e-4
1.343,   4.071e-4
1.344,   4.117e-4
1.345,   4.154e-4
1.346,   4.103e-4
1.347,   4.080e-4
1.348,   4.091e-4
1.349,   4.124e-4
1.350,   4.136e-4
1.351,   4.128e-4
1.352,   4.220e-4
1.353,   4.235e-4
1.354,   4.276e-4
1.355,   4.287e-4
1.356,   4.313e-4
1.357,   4.292e-4
1.358,   4.272e-4
1.359,   4.270e-4
1.360,   4.325e-4
1.361,   4.341e-4
1.362,   4.352e-4
1.363,   4.345e-4
1.364,   4.389e-4
1.365,   4.452e-4
1.366,   4.564e-4
1.367,   4.557e-4
1.368,   4.519e-4
1.369,   4.495e-4
1.370,   4.524e-4
1.371,   4.531e-4
1.372,   4.571e-4
1.373,   4.592e-4
1.374,   4.633e-4
1.375,   4.679e-4
1.376,   4.749e-4
1.377,   4.833e-4
1.378,   4.817e-4
1.379,   4.808e-4
1.380,   4.802e-4
1.381,   4.854e-4
1.382,   4.883e-4
1.383,   4.925e-4
1.384,   4.955e-4
1.385,   4.966e-4
1.386,   5.060e-4
1.387,   5.174e-4
1.388,   5.222e-4
1.389,   5.263e-4
1.390,   5.249e-4
1.391,   5.249e-4
1.392,   5.345e-4
1.393,   5.393e-4
1.394,   5.432e-4
1.395,   5.446e-4
1.396,   5.526e-4
1.397,   5.660e-4
1.398,   5.798e-4
1.399,   5.897e-4
1.400,   5.931e-4
1.401,   5.940e-4
1.402,   6.008e-4
1.403,   6.091e-4
1.404,   6.203e-4
1.405,   6.274e-4
1.406,   6.358e-4
1.407,   6.470e-4
1.408,   6.667e-4
1.409,   6.889e-4
1.410,   6.999e-4
1.411,   7.084e-4
1.412,   7.171e-4
1.413,   7.280e-4
1.414,   7.415e-4
1.415,   7.582e-4
1.416,   7.759e-4
1.417,   7.926e-4
1.418,   8.172e-4
1.419,   8.496e-4
1.420,   8.737e-4
1.421,   8.967e-4
1.422,   9.154e-4
1.423,   9.333e-4
1.424,   9.551e-4
1.425,   9.855e-4
1.426,   1.030e-3
1.427,   1.052e-3
1.428,   1.083e-3
1.429,   1.122e-3
1.430,   1.177e-3
1.431,   1.219e-3
1.432,   1.259e-3
1.433,   1.288e-3
1.434,   1.325e-3
1.435,   1.369e-3
1.436,   1.421e-3
1.437,   1.475e-3
1.438,   1.520e-3
1.439,   1.583e-3
1.440,   1.648e-3
1.441,   1.732e-3
1.442,   1.795e-3
1.443,   1.842e-3
1.444,   1.898e-3
1.445,   1.962e-3
1.446,   2.036e-3
1.447,   2.126e-3
1.448,   2.199e-3
1.449,   2.264e-3
1.450,   2.353e-3
1.451,   2.459e-3
1.452,   2.597e-3
1.453,   2.684e-3
1.454,   2.773e-3
1.455,   2.854e-3
1.456,   2.955e-3
1.457,   3.016e-3
1.458,   3.131e-3
1.459,   3.254e-3
1.460,   3.365e-3
1.461,   3.446e-3
1.462,   3.592e-3
1.463,   3.701e-3
1.464,   3.821e-3
1.465,   3.940e-3
1.466,   3.998e-3
1.467,   4.107e-3
1.468,   4.232e-3
1.469,   4.363e-3
1.470,   4.495e-3
1.471,   4.611e-3
1.472,   4.763e-3
1.473,   4.937e-3
1.474,   5.113e-3
1.475,   5.238e-3
1.476,   5.294e-3
1.477,   5.365e-3
1.478,   5.480e-3
1.479,   5.578e-3
1.480,   5.710e-3
1.481,   5.855e-3
1.482,   5.966e-3
1.483,   6.191e-3
1.484,   6.423e-3
1.485,   6.612e-3
1.486,   6.761e-3
1.487,   6.810e-3
1.488,   6.929e-3
1.489,   7.053e-3
1.490,   7.200e-3
1.491,   7.309e-3
1.492,   7.439e-3
1.493,   7.563e-3
1.494,   7.844e-3
1.495,   8.108e-3
1.496,   8.286e-3
1.497,   8.359e-3
1.498,   8.469e-3
1.499,   8.583e-3
1.500,   8.692e-3
1.501,   8.843e-3
1.502,   9.006e-3
1.503,   9.116e-3
1.504,   9.256e-3
1.505,   9.464e-3
1.506,   9.595e-3
1.507,   9.660e-3
1.508,   9.644e-3
1.509,   9.560e-3
1.510,   9.578e-3
1.511,   9.692e-3
1.512,   9.798e-3
1.513,   9.826e-3
1.514,   9.876e-3
1.515,   9.958e-3
1.516,   9.965e-3
1.517,   1.005e-2
1.518,   1.007e-2
1.519,   1.007e-2
1.520,   1.007e-2
1.521,   1.007e-2
1.522,   1.007e-2
1.523,   1.007e-2
1.524,   1.007e-2
1.525,   1.007e-2