File: Experimental Records and Raw Data/batch5/final400/B5_BEST_400_#1_High_Quality(#17)-218mV.txt
May 31, 2023   14:39:21
Linear Sweep Voltammetry
File: d:\current work\al_oer\electrochemical test data\batch 5\400\B5_BEST_400_#1_High_Quality(#17)-218mV.txt
Data Source:  Experiment
Instrument Model:  CHI660E
Header:
Note:

Init E (V) = 0.900

Final E (V) = 1.512

Scan Rate (V/s) = 0.010
Sample Interval (V) = 0.001
Quiet Time (sec) = 2
Sensitivity (A/V) = 0.001
Comp R (ohm) = 5.7

Results:

Channel 1:

Potential/V, Current/A
0.900,   2.831e-4
0.901,   3.389e-4
0.902,   3.404e-4
0.903,   3.325e-4
0.904,   3.361e-4
0.905,   3.340e-4
0.906,   3.342e-4
0.907,   3.271e-4
0.908,   3.331e-4
0.909,   3.254e-4
0.910,   3.171e-4
0.911,   3.291e-4
0.912,   3.235e-4
0.913,   3.235e-4
0.914,   3.150e-4
0.915,   3.165e-4
0.916,   3.108e-4
0.917,   3.094e-4
0.918,   3.101e-4
0.919,   3.113e-4
0.920,   3.070e-4
0.921,   3.035e-4
0.922,   3.048e-4
0.923,   3.025e-4
0.924,   3.012e-4
0.925,   3.025e-4
0.926,   2.978e-4
0.927,   2.958e-4
0.928,   2.996e-4
0.929,   2.939e-4
0.930,   2.932e-4
0.931,   2.917e-4
0.932,   2.971e-4
0.933,   2.871e-4
0.934,   2.869e-4
0.935,   2.819e-4
0.936,   2.873e-4
0.937,   2.869e-4
0.938,   2.853e-4
0.939,   2.883e-4
0.940,   2.769e-4
0.941,   2.840e-4
0.942,   2.789e-4
0.943,   2.773e-4
0.944,   2.789e-4
0.945,   2.797e-4
0.946,   2.747e-4
0.947,   2.751e-4
0.948,   2.774e-4
0.949,   2.756e-4
0.950,   2.728e-4
0.951,   2.677e-4
0.952,   2.752e-4
0.953,   2.721e-4
0.954,   2.691e-4
0.955,   2.674e-4
0.956,   2.709e-4
0.957,   2.684e-4
0.958,   2.629e-4
0.959,   2.683e-4
0.960,   2.710e-4
0.961,   2.653e-4
0.962,   2.640e-4
0.963,   2.657e-4
0.964,   2.651e-4
0.965,   2.615e-4
0.966,   2.600e-4
0.967,   2.696e-4
0.968,   2.596e-4
0.969,   2.567e-4
0.970,   2.637e-4
0.971,   2.621e-4
0.972,   2.565e-4
0.973,   2.572e-4
0.974,   2.640e-4
0.975,   2.579e-4
0.976,   2.538e-4
0.977,   2.564e-4
0.978,   2.623e-4
0.979,   2.525e-4
0.980,   2.534e-4
0.981,   2.559e-4
0.982,   2.571e-4
0.983,   2.529e-4
0.984,   2.499e-4
0.985,   2.590e-4
0.986,   2.539e-4
0.987,   2.516e-4
0.988,   2.518e-4
0.989,   2.552e-4
0.990,   2.519e-4
0.991,   2.457e-4
0.992,   2.513e-4
0.993,   2.569e-4
0.994,   2.501e-4
0.995,   2.468e-4
0.996,   2.547e-4
0.997,   2.500e-4
0.998,   2.476e-4
0.999,   2.455e-4
1.000,   2.544e-4
1.001,   2.507e-4
1.002,   2.480e-4
1.003,   2.463e-4
1.004,   2.503e-4
1.005,   2.463e-4
1.006,   2.433e-4
1.007,   2.520e-4
1.008,   2.448e-4
1.009,   2.434e-4
1.010,   2.429e-4
1.011,   2.541e-4
1.012,   2.467e-4
1.013,   2.416e-4
1.014,   2.474e-4
1.015,   2.539e-4
1.016,   2.425e-4
1.017,   2.370e-4
1.018,   2.519e-4
1.019,   2.507e-4
1.020,   2.383e-4
1.021,   2.389e-4
1.022,   2.538e-4
1.023,   2.436e-4
1.024,   2.397e-4
1.025,   2.405e-4
1.026,   2.487e-4
1.027,   2.432e-4
1.028,   2.403e-4
1.029,   2.474e-4
1.030,   2.498e-4
1.031,   2.421e-4
1.032,   2.380e-4
1.033,   2.508e-4
1.034,   2.443e-4
1.035,   2.372e-4
1.036,   2.384e-4
1.037,   2.503e-4
1.038,   2.436e-4
1.039,   2.401e-4
1.040,   2.440e-4
1.041,   2.454e-4
1.042,   2.434e-4
1.043,   2.373e-4
1.044,   2.471e-4
1.045,   2.443e-4
1.046,   2.443e-4
1.047,   2.404e-4
1.048,   2.497e-4
1.049,   2.418e-4
1.050,   2.405e-4
1.051,   2.451e-4
1.052,   2.483e-4
1.053,   2.425e-4
1.054,   2.392e-4
1.055,   2.478e-4
1.056,   2.442e-4
1.057,   2.385e-4
1.058,   2.395e-4
1.059,   2.508e-4
1.060,   2.441e-4
1.061,   2.409e-4
1.062,   2.412e-4
1.063,   2.523e-4
1.064,   2.415e-4
1.065,   2.403e-4
1.066,   2.486e-4
1.067,   2.487e-4
1.068,   2.444e-4
1.069,   2.432e-4
1.070,   2.504e-4
1.071,   2.455e-4
1.072,   2.454e-4
1.073,   2.436e-4
1.074,   2.492e-4
1.075,   2.469e-4
1.076,   2.421e-4
1.077,   2.459e-4
1.078,   2.499e-4
1.079,   2.489e-4
1.080,   2.416e-4
1.081,   2.504e-4
1.082,   2.487e-4
1.083,   2.452e-4
1.084,   2.422e-4
1.085,   2.533e-4
1.086,   2.481e-4
1.087,   2.467e-4
1.088,   2.474e-4
1.089,   2.538e-4
1.090,   2.449e-4
1.091,   2.444e-4
1.092,   2.566e-4
1.093,   2.488e-4
1.094,   2.483e-4
1.095,   2.472e-4
1.096,   2.555e-4
1.097,   2.496e-4
1.098,   2.512e-4
1.099,   2.508e-4
1.100,   2.551e-4
1.101,   2.510e-4
1.102,   2.520e-4
1.103,   2.515e-4
1.104,   2.536e-4
1.105,   2.521e-4
1.106,   2.563e-4
1.107,   2.548e-4
1.108,   2.526e-4
1.109,   2.498e-4
1.110,   2.546e-4
1.111,   2.607e-4
1.112,   2.541e-4
1.113,   2.516e-4
1.114,   2.635e-4
1.115,   2.571e-4
1.116,   2.533e-4
1.117,   2.539e-4
1.118,   2.646e-4
1.119,   2.576e-4
1.120,   2.575e-4
1.121,   2.586e-4
1.122,   2.622e-4
1.123,   2.564e-4
1.124,   2.551e-4
1.125,   2.640e-4
1.126,   2.635e-4
1.127,   2.583e-4
1.128,   2.580e-4
1.129,   2.654e-4
1.130,   2.638e-4
1.131,   2.633e-4
1.132,   2.638e-4
1.133,   2.653e-4
1.134,   2.635e-4
1.135,   2.654e-4
1.136,   2.628e-4
1.137,   2.679e-4
1.138,   2.679e-4
1.139,   2.657e-4
1.140,   2.658e-4
1.141,   2.669e-4
1.142,   2.686e-4
1.143,   2.666e-4
1.144,   2.697e-4
1.145,   2.703e-4
1.146,   2.695e-4
1.147,   2.680e-4
1.148,   2.760e-4
1.149,   2.724e-4
1.150,   2.673e-4
1.151,   2.750e-4
1.152,   2.738e-4
1.153,   2.722e-4
1.154,   2.691e-4
1.155,   2.776e-4
1.156,   2.744e-4
1.157,   2.751e-4
1.158,   2.741e-4
1.159,   2.797e-4
1.160,   2.765e-4
1.161,   2.758e-4
1.162,   2.749e-4
1.163,   2.800e-4
1.164,   2.776e-4
1.165,   2.759e-4
1.166,   2.813e-4
1.167,   2.781e-4
1.168,   2.790e-4
1.169,   2.820e-4
1.170,   2.801e-4
1.171,   2.794e-4
1.172,   2.832e-4
1.173,   2.852e-4
1.174,   2.809e-4
1.175,   2.861e-4
1.176,   2.825e-4
1.177,   2.876e-4
1.178,   2.834e-4
1.179,   2.817e-4
1.180,   2.877e-4
1.181,   2.895e-4
1.182,   2.870e-4
1.183,   2.868e-4
1.184,   2.902e-4
1.185,   2.908e-4
1.186,   2.889e-4
1.187,   2.862e-4
1.188,   2.930e-4
1.189,   2.955e-4
1.190,   2.851e-4
1.191,   2.889e-4
1.192,   2.973e-4
1.193,   2.937e-4
1.194,   2.893e-4
1.195,   2.947e-4
1.196,   3.047e-4
1.197,   2.935e-4
1.198,   2.853e-4
1.199,   3.016e-4
1.200,   3.024e-4
1.201,   2.891e-4
1.202,   2.958e-4
1.203,   3.083e-4
1.204,   2.951e-4
1.205,   2.954e-4
1.206,   3.008e-4
1.207,   3.057e-4
1.208,   2.941e-4
1.209,   2.969e-4
1.210,   3.076e-4
1.211,   3.031e-4
1.212,   2.981e-4
1.213,   3.006e-4
1.214,   3.091e-4
1.215,   3.026e-4
1.216,   2.992e-4
1.217,   3.067e-4
1.218,   3.113e-4
1.219,   3.018e-4
1.220,   2.978e-4
1.221,   3.110e-4
1.222,   3.130e-4
1.223,   3.057e-4
1.224,   3.008e-4
1.225,   3.150e-4
1.226,   3.099e-4
1.227,   3.036e-4
1.228,   3.094e-4
1.229,   3.241e-4
1.230,   3.068e-4
1.231,   3.047e-4
1.232,   3.121e-4
1.233,   3.175e-4
1.234,   3.083e-4
1.235,   3.121e-4
1.236,   3.211e-4
1.237,   3.148e-4
1.238,   3.086e-4
1.239,   3.064e-4
1.240,   3.235e-4
1.241,   3.161e-4
1.242,   3.105e-4
1.243,   3.151e-4
1.244,   3.304e-4
1.245,   3.101e-4
1.246,   3.049e-4
1.247,   3.237e-4
1.248,   3.241e-4
1.249,   3.149e-4
1.250,   3.108e-4
1.251,   3.289e-4
1.252,   3.158e-4
1.253,   3.111e-4
1.254,   3.193e-4
1.255,   3.339e-4
1.256,   3.163e-4
1.257,   3.118e-4
1.258,   3.249e-4
1.259,   3.224e-4
1.260,   3.162e-4
1.261,   3.156e-4
1.262,   3.359e-4
1.263,   3.237e-4
1.264,   3.131e-4
1.265,   3.244e-4
1.266,   3.316e-4
1.267,   3.223e-4
1.268,   3.137e-4
1.269,   3.294e-4
1.270,   3.323e-4
1.271,   3.228e-4
1.272,   3.141e-4
1.273,   3.343e-4
1.274,   3.276e-4
1.275,   3.201e-4
1.276,   3.201e-4
1.277,   3.427e-4
1.278,   3.234e-4
1.279,   3.147e-4
1.280,   3.338e-4
1.281,   3.404e-4
1.282,   3.246e-4
1.283,   3.195e-4
1.284,   3.413e-4
1.285,   3.353e-4
1.286,   3.180e-4
1.287,   3.235e-4
1.288,   3.479e-4
1.289,   3.304e-4
1.290,   3.186e-4
1.291,   3.326e-4
1.292,   3.440e-4
1.293,   3.270e-4
1.294,   3.206e-4
1.295,   3.453e-4
1.296,   3.366e-4
1.297,   3.210e-4
1.298,   3.299e-4
1.299,   3.521e-4
1.300,   3.315e-4
1.301,   3.222e-4
1.302,   3.412e-4
1.303,   3.517e-4
1.304,   3.294e-4
1.305,   3.258e-4
1.306,   3.515e-4
1.307,   3.424e-4
1.308,   3.289e-4
1.309,   3.323e-4
1.310,   3.569e-4
1.311,   3.398e-4
1.312,   3.246e-4
1.313,   3.417e-4
1.314,   3.601e-4
1.315,   3.328e-4
1.316,   3.357e-4
1.317,   3.550e-4
1.318,   3.507e-4
1.319,   3.359e-4
1.320,   3.370e-4
1.321,   3.633e-4
1.322,   3.481e-4
1.323,   3.363e-4
1.324,   3.501e-4
1.325,   3.692e-4
1.326,   3.403e-4
1.327,   3.418e-4
1.328,   3.648e-4
1.329,   3.635e-4
1.330,   3.428e-4
1.331,   3.457e-4
1.332,   3.677e-4
1.333,   3.568e-4
1.334,   3.420e-4
1.335,   3.563e-4
1.336,   3.805e-4
1.337,   3.525e-4
1.338,   3.437e-4
1.339,   3.669e-4
1.340,   3.767e-4
1.341,   3.549e-4
1.342,   3.522e-4
1.343,   3.825e-4
1.344,   3.694e-4
1.345,   3.530e-4
1.346,   3.609e-4
1.347,   3.855e-4
1.348,   3.720e-4
1.349,   3.552e-4
1.350,   3.794e-4
1.351,   3.855e-4
1.352,   3.649e-4
1.353,   3.641e-4
1.354,   3.884e-4
1.355,   3.911e-4
1.356,   3.668e-4
1.357,   3.724e-4
1.358,   3.999e-4
1.359,   3.819e-4
1.360,   3.695e-4
1.361,   3.834e-4
1.362,   4.010e-4
1.363,   3.887e-4
1.364,   3.844e-4
1.365,   3.914e-4
1.366,   4.041e-4
1.367,   3.942e-4
1.368,   3.857e-4
1.369,   4.090e-4
1.370,   3.999e-4
1.371,   3.979e-4
1.372,   3.943e-4
1.373,   4.151e-4
1.374,   4.046e-4
1.375,   3.969e-4
1.376,   4.117e-4
1.377,   4.258e-4
1.378,   4.077e-4
1.379,   3.996e-4
1.380,   4.303e-4
1.381,   4.289e-4
1.382,   4.108e-4
1.383,   4.142e-4
1.384,   4.415e-4
1.385,   4.229e-4
1.386,   4.190e-4
1.387,   4.302e-4
1.388,   4.546e-4
1.389,   4.283e-4
1.390,   4.317e-4
1.391,   4.549e-4
1.392,   4.501e-4
1.393,   4.416e-4
1.394,   4.405e-4
1.395,   4.711e-4
1.396,   4.692e-4
1.397,   4.533e-4
1.398,   4.703e-4
1.399,   4.909e-4
1.400,   4.712e-4
1.401,   4.756e-4
1.402,   4.973e-4
1.403,   5.047e-4
1.404,   4.908e-4
1.405,   5.008e-4
1.406,   5.290e-4
1.407,   5.237e-4
1.408,   5.206e-4
1.409,   5.349e-4
1.410,   5.732e-4
1.411,   5.462e-4
1.412,   5.462e-4
1.413,   5.853e-4
1.414,   6.125e-4
1.415,   5.908e-4
1.416,   5.962e-4
1.417,   6.395e-4
1.418,   6.398e-4
1.419,   6.385e-4
1.420,   6.613e-4
1.421,   7.212e-4
1.422,   6.959e-4
1.423,   6.980e-4
1.424,   7.552e-4
1.425,   7.886e-4
1.426,   7.603e-4
1.427,   7.968e-4
1.428,   8.707e-4
1.429,   8.844e-4
1.430,   8.727e-4
1.431,   9.108e-4
1.432,   1.018e-3
1.433,   9.968e-4
1.434,   1.013e-3
1.435,   1.090e-3
1.436,   1.154e-3
1.437,   1.129e-3
1.438,   1.165e-3
1.439,   1.283e-3
1.440,   1.343e-3
1.441,   1.343e-3
1.442,   1.406e-3
1.443,   1.546e-3
1.444,   1.535e-3
1.445,   1.586e-3
1.446,   1.680e-3
1.447,   1.864e-3
1.448,   1.841e-3
1.449,   1.911e-3
1.450,   2.081e-3
1.451,   2.165e-3
1.452,   2.186e-3
1.453,   2.282e-3
1.454,   2.523e-3
1.455,   2.579e-3
1.456,   2.604e-3
1.457,   2.780e-3
1.458,   2.965e-3
1.459,   2.998e-3
1.460,   3.164e-3
1.461,   3.417e-3
1.462,   3.528e-3
1.463,   3.597e-3
1.464,   3.747e-3
1.465,   4.068e-3
1.466,   4.148e-3
1.467,   4.330e-3
1.468,   4.596e-3
1.469,   4.864e-3
1.470,   4.851e-3
1.471,   5.001e-3
1.472,   5.355e-3
1.473,   5.691e-3
1.474,   5.693e-3
1.475,   6.020e-3
1.476,   6.504e-3
1.477,   6.489e-3
1.478,   6.650e-3
1.479,   6.932e-3
1.480,   7.441e-3
1.481,   7.384e-3
1.482,   7.651e-3
1.483,   8.155e-3
1.484,   8.189e-3
1.485,   8.325e-3
1.486,   8.769e-3
1.487,   9.045e-3
1.488,   9.007e-3
1.489,   9.446e-3
1.490,   9.658e-3
1.491,   9.670e-3
1.492,   9.614e-3
1.493,   9.859e-3
1.494,   9.941e-3
1.495,   9.931e-3
1.496,   1.003e-2
1.497,   1.007e-2
1.498,   1.007e-2
1.499,   1.007e-2
1.500,   1.007e-2
1.501,   1.007e-2
1.502,   1.007e-2
1.503,   1.007e-2
1.504,   1.007e-2
1.505,   1.007e-2
1.506,   1.007e-2
1.507,   1.007e-2
1.508,   1.007e-2
1.509,   1.007e-2
1.510,   1.007e-2
1.511,   1.007e-2
1.512,   1.007e-2