File: Experimental Records and Raw Data/batch5/final400/B5_BEST_400_#1_High_Quality(#29)-237mV.txt
May 30, 2023   21:24:06
Linear Sweep Voltammetry
File: d:\current work\al_oer\electrochemical test data\batch 5\400\B5_BEST_400_#1_High_Quality(#29)-237mV.txt
Data Source:  Experiment
Instrument Model:  CHI660E
Header:
Note:

Init E (V) = 0.902

Final E (V) = 1.541

Scan Rate (V/s) = 0.010
Sample Interval (V) = 0.001
Quiet Time (sec) = 2
Sensitivity (A/V) = 0.001
Comp R (ohm) = 6.0

Results:

Channel 1:

Potential/V, Current/A
0.902,   2.383e-4
0.903,   2.368e-4
0.904,   2.366e-4
0.905,   2.264e-4
0.906,   2.171e-4
0.907,   2.121e-4
0.908,   2.060e-4
0.909,   2.005e-4
0.910,   1.910e-4
0.911,   1.916e-4
0.912,   1.833e-4
0.913,   1.798e-4
0.914,   1.750e-4
0.915,   1.722e-4
0.916,   1.688e-4
0.917,   1.623e-4
0.918,   1.619e-4
0.919,   1.571e-4
0.920,   1.551e-4
0.921,   1.510e-4
0.922,   1.504e-4
0.923,   1.479e-4
0.924,   1.431e-4
0.925,   1.444e-4
0.926,   1.395e-4
0.927,   1.395e-4
0.928,   1.351e-4
0.929,   1.358e-4
0.930,   1.329e-4
0.931,   1.297e-4
0.932,   1.305e-4
0.933,   1.277e-4
0.934,   1.270e-4
0.935,   1.237e-4
0.936,   1.253e-4
0.937,   1.226e-4
0.938,   1.204e-4
0.939,   1.202e-4
0.940,   1.195e-4
0.941,   1.185e-4
0.942,   1.155e-4
0.943,   1.175e-4
0.944,   1.145e-4
0.945,   1.146e-4
0.946,   1.123e-4
0.947,   1.125e-4
0.948,   1.116e-4
0.949,   1.092e-4
0.950,   1.109e-4
0.951,   1.085e-4
0.952,   1.088e-4
0.953,   1.060e-4
0.954,   1.079e-4
0.955,   1.064e-4
0.956,   1.046e-4
0.957,   1.051e-4
0.958,   1.041e-4
0.959,   1.039e-4
0.960,   1.017e-4
0.961,   1.039e-4
0.962,   1.018e-4
0.963,   1.006e-4
0.964,   1.010e-4
0.965,   1.008e-4
0.966,   9.996e-5
0.967,   9.817e-5
0.968,   1.007e-4
0.969,   9.845e-5
0.970,   9.771e-5
0.971,   9.678e-5
0.972,   9.714e-5
0.973,   9.694e-5
0.974,   9.567e-5
0.975,   9.664e-5
0.976,   9.468e-5
0.977,   9.604e-5
0.978,   9.437e-5
0.979,   9.384e-5
0.980,   9.493e-5
0.981,   9.328e-5
0.982,   9.406e-5
0.983,   9.286e-5
0.984,   9.296e-5
0.985,   9.193e-5
0.986,   9.229e-5
0.987,   9.214e-5
0.988,   9.114e-5
0.989,   9.162e-5
0.990,   9.012e-5
0.991,   9.084e-5
0.992,   8.939e-5
0.993,   9.123e-5
0.994,   8.961e-5
0.995,   8.940e-5
0.996,   9.045e-5
0.997,   8.879e-5
0.998,   8.996e-5
0.999,   8.778e-5
1.000,   8.968e-5
1.001,   8.810e-5
1.002,   8.808e-5
1.003,   8.767e-5
1.004,   8.791e-5
1.005,   8.808e-5
1.006,   8.644e-5
1.007,   8.800e-5
1.008,   8.653e-5
1.009,   8.724e-5
1.010,   8.607e-5
1.011,   8.712e-5
1.012,   8.688e-5
1.013,   8.481e-5
1.014,   8.665e-5
1.015,   8.566e-5
1.016,   8.617e-5
1.017,   8.481e-5
1.018,   8.659e-5
1.019,   8.532e-5
1.020,   8.477e-5
1.021,   8.543e-5
1.022,   8.478e-5
1.023,   8.544e-5
1.024,   8.327e-5
1.025,   8.639e-5
1.026,   8.439e-5
1.027,   8.401e-5
1.028,   8.520e-5
1.029,   8.451e-5
1.030,   8.399e-5
1.031,   8.282e-5
1.032,   8.510e-5
1.033,   8.430e-5
1.034,   8.352e-5
1.035,   8.284e-5
1.036,   8.521e-5
1.037,   8.420e-5
1.038,   8.273e-5
1.039,   8.472e-5
1.040,   8.302e-5
1.041,   8.392e-5
1.042,   8.242e-5
1.043,   8.407e-5
1.044,   8.336e-5
1.045,   8.145e-5
1.046,   8.373e-5
1.047,   8.283e-5
1.048,   8.338e-5
1.049,   8.290e-5
1.050,   8.411e-5
1.051,   8.274e-5
1.052,   8.208e-5
1.053,   8.272e-5
1.054,   8.311e-5
1.055,   8.344e-5
1.056,   8.150e-5
1.057,   8.454e-5
1.058,   8.241e-5
1.059,   8.265e-5
1.060,   8.254e-5
1.061,   8.337e-5
1.062,   8.320e-5
1.063,   8.226e-5
1.064,   8.329e-5
1.065,   8.255e-5
1.066,   8.297e-5
1.067,   8.202e-5
1.068,   8.411e-5
1.069,   8.287e-5
1.070,   8.256e-5
1.071,   8.412e-5
1.072,   8.233e-5
1.073,   8.258e-5
1.074,   8.200e-5
1.075,   8.459e-5
1.076,   8.254e-5
1.077,   8.231e-5
1.078,   8.406e-5
1.079,   8.307e-5
1.080,   8.309e-5
1.081,   8.277e-5
1.082,   8.476e-5
1.083,   8.311e-5
1.084,   8.302e-5
1.085,   8.349e-5
1.086,   8.385e-5
1.087,   8.364e-5
1.088,   8.217e-5
1.089,   8.512e-5
1.090,   8.316e-5
1.091,   8.360e-5
1.092,   8.360e-5
1.093,   8.469e-5
1.094,   8.400e-5
1.095,   8.289e-5
1.096,   8.554e-5
1.097,   8.265e-5
1.098,   8.420e-5
1.099,   8.351e-5
1.100,   8.565e-5
1.101,   8.428e-5
1.102,   8.386e-5
1.103,   8.569e-5
1.104,   8.447e-5
1.105,   8.540e-5
1.106,   8.364e-5
1.107,   8.614e-5
1.108,   8.504e-5
1.109,   8.465e-5
1.110,   8.631e-5
1.111,   8.498e-5
1.112,   8.604e-5
1.113,   8.465e-5
1.114,   8.668e-5
1.115,   8.594e-5
1.116,   8.585e-5
1.117,   8.584e-5
1.118,   8.671e-5
1.119,   8.644e-5
1.120,   8.571e-5
1.121,   8.733e-5
1.122,   8.698e-5
1.123,   8.654e-5
1.124,   8.640e-5
1.125,   8.783e-5
1.126,   8.762e-5
1.127,   8.674e-5
1.128,   8.839e-5
1.129,   8.752e-5
1.130,   8.830e-5
1.131,   8.720e-5
1.132,   8.915e-5
1.133,   8.826e-5
1.134,   8.767e-5
1.135,   8.962e-5
1.136,   8.917e-5
1.137,   8.972e-5
1.138,   8.766e-5
1.139,   8.978e-5
1.140,   8.979e-5
1.141,   8.833e-5
1.142,   9.005e-5
1.143,   8.981e-5
1.144,   9.057e-5
1.145,   8.880e-5
1.146,   9.178e-5
1.147,   8.962e-5
1.148,   9.059e-5
1.149,   9.077e-5
1.150,   9.134e-5
1.151,   9.147e-5
1.152,   9.016e-5
1.153,   9.289e-5
1.154,   9.145e-5
1.155,   9.201e-5
1.156,   9.161e-5
1.157,   9.353e-5
1.158,   9.224e-5
1.159,   9.182e-5
1.160,   9.400e-5
1.161,   9.313e-5
1.162,   9.341e-5
1.163,   9.299e-5
1.164,   9.494e-5
1.165,   9.441e-5
1.166,   9.320e-5
1.167,   9.531e-5
1.168,   9.412e-5
1.169,   9.523e-5
1.170,   9.338e-5
1.171,   9.764e-5
1.172,   9.491e-5
1.173,   9.479e-5
1.174,   9.705e-5
1.175,   9.703e-5
1.176,   9.616e-5
1.177,   9.480e-5
1.178,   9.894e-5
1.179,   9.733e-5
1.180,   9.707e-5
1.181,   9.786e-5
1.182,   9.830e-5
1.183,   9.870e-5
1.184,   9.666e-5
1.185,   1.011e-4
1.186,   9.887e-5
1.187,   9.842e-5
1.188,   9.871e-5
1.189,   1.018e-4
1.190,   9.971e-5
1.191,   9.883e-5
1.192,   1.020e-4
1.193,   1.007e-4
1.194,   1.012e-4
1.195,   1.002e-4
1.196,   1.030e-4
1.197,   1.016e-4
1.198,   1.011e-4
1.199,   1.031e-4
1.200,   1.029e-4
1.201,   1.029e-4
1.202,   1.013e-4
1.203,   1.062e-4
1.204,   1.040e-4
1.205,   1.025e-4
1.206,   1.043e-4
1.207,   1.047e-4
1.208,   1.051e-4
1.209,   1.033e-4
1.210,   1.082e-4
1.211,   1.047e-4
1.212,   1.052e-4
1.213,   1.060e-4
1.214,   1.068e-4
1.215,   1.078e-4
1.216,   1.042e-4
1.217,   1.093e-4
1.218,   1.086e-4
1.219,   1.076e-4
1.220,   1.054e-4
1.221,   1.094e-4
1.222,   1.095e-4
1.223,   1.073e-4
1.224,   1.100e-4
1.225,   1.103e-4
1.226,   1.091e-4
1.227,   1.072e-4
1.228,   1.117e-4
1.229,   1.107e-4
1.230,   1.099e-4
1.231,   1.119e-4
1.232,   1.100e-4
1.233,   1.124e-4
1.234,   1.095e-4
1.235,   1.132e-4
1.236,   1.117e-4
1.237,   1.112e-4
1.238,   1.120e-4
1.239,   1.127e-4
1.240,   1.131e-4
1.241,   1.116e-4
1.242,   1.148e-4
1.243,   1.127e-4
1.244,   1.135e-4
1.245,   1.142e-4
1.246,   1.144e-4
1.247,   1.152e-4
1.248,   1.112e-4
1.249,   1.162e-4
1.250,   1.140e-4
1.251,   1.142e-4
1.252,   1.150e-4
1.253,   1.156e-4
1.254,   1.152e-4
1.255,   1.138e-4
1.256,   1.172e-4
1.257,   1.162e-4
1.258,   1.152e-4
1.259,   1.149e-4
1.260,   1.186e-4
1.261,   1.162e-4
1.262,   1.149e-4
1.263,   1.182e-4
1.264,   1.162e-4
1.265,   1.168e-4
1.266,   1.153e-4
1.267,   1.197e-4
1.268,   1.161e-4
1.269,   1.170e-4
1.270,   1.190e-4
1.271,   1.173e-4
1.272,   1.179e-4
1.273,   1.164e-4
1.274,   1.199e-4
1.275,   1.171e-4
1.276,   1.183e-4
1.277,   1.177e-4
1.278,   1.212e-4
1.279,   1.189e-4
1.280,   1.172e-4
1.281,   1.202e-4
1.282,   1.176e-4
1.283,   1.185e-4
1.284,   1.187e-4
1.285,   1.200e-4
1.286,   1.197e-4
1.287,   1.179e-4
1.288,   1.218e-4
1.289,   1.186e-4
1.290,   1.197e-4
1.291,   1.184e-4
1.292,   1.213e-4
1.293,   1.198e-4
1.294,   1.195e-4
1.295,   1.211e-4
1.296,   1.196e-4
1.297,   1.217e-4
1.298,   1.178e-4
1.299,   1.215e-4
1.300,   1.204e-4
1.301,   1.211e-4
1.302,   1.211e-4
1.303,   1.214e-4
1.304,   1.220e-4
1.305,   1.199e-4
1.306,   1.229e-4
1.307,   1.215e-4
1.308,   1.217e-4
1.309,   1.219e-4
1.310,   1.228e-4
1.311,   1.217e-4
1.312,   1.211e-4
1.313,   1.239e-4
1.314,   1.208e-4
1.315,   1.237e-4
1.316,   1.220e-4
1.317,   1.253e-4
1.318,   1.219e-4
1.319,   1.226e-4
1.320,   1.264e-4
1.321,   1.208e-4
1.322,   1.245e-4
1.323,   1.229e-4
1.324,   1.261e-4
1.325,   1.228e-4
1.326,   1.241e-4
1.327,   1.264e-4
1.328,   1.240e-4
1.329,   1.260e-4
1.330,   1.242e-4
1.331,   1.282e-4
1.332,   1.231e-4
1.333,   1.278e-4
1.334,   1.265e-4
1.335,   1.250e-4
1.336,   1.276e-4
1.337,   1.265e-4
1.338,   1.295e-4
1.339,   1.250e-4
1.340,   1.290e-4
1.341,   1.278e-4
1.342,   1.296e-4
1.343,   1.277e-4
1.344,   1.281e-4
1.345,   1.330e-4
1.346,   1.285e-4
1.347,   1.304e-4
1.348,   1.294e-4
1.349,   1.310e-4
1.350,   1.300e-4
1.351,   1.294e-4
1.352,   1.331e-4
1.353,   1.315e-4
1.354,   1.319e-4
1.355,   1.308e-4
1.356,   1.366e-4
1.357,   1.311e-4
1.358,   1.353e-4
1.359,   1.352e-4
1.360,   1.326e-4
1.361,   1.358e-4
1.362,   1.337e-4
1.363,   1.398e-4
1.364,   1.339e-4
1.365,   1.378e-4
1.366,   1.373e-4
1.367,   1.380e-4
1.368,   1.390e-4
1.369,   1.376e-4
1.370,   1.423e-4
1.371,   1.373e-4
1.372,   1.422e-4
1.373,   1.415e-4
1.374,   1.426e-4
1.375,   1.421e-4
1.376,   1.420e-4
1.377,   1.466e-4
1.378,   1.436e-4
1.379,   1.462e-4
1.380,   1.445e-4
1.381,   1.499e-4
1.382,   1.461e-4
1.383,   1.487e-4
1.384,   1.524e-4
1.385,   1.492e-4
1.386,   1.506e-4
1.387,   1.513e-4
1.388,   1.565e-4
1.389,   1.518e-4
1.390,   1.561e-4
1.391,   1.588e-4
1.392,   1.553e-4
1.393,   1.599e-4
1.394,   1.591e-4
1.395,   1.652e-4
1.396,   1.615e-4
1.397,   1.652e-4
1.398,   1.679e-4
1.399,   1.689e-4
1.400,   1.705e-4
1.401,   1.706e-4
1.402,   1.795e-4
1.403,   1.742e-4
1.404,   1.800e-4
1.405,   1.821e-4
1.406,   1.848e-4
1.407,   1.873e-4
1.408,   1.881e-4
1.409,   1.977e-4
1.410,   1.953e-4
1.411,   2.011e-4
1.412,   2.030e-4
1.413,   2.125e-4
1.414,   2.104e-4
1.415,   2.169e-4
1.416,   2.259e-4
1.417,   2.276e-4
1.418,   2.336e-4
1.419,   2.375e-4
1.420,   2.518e-4
1.421,   2.509e-4
1.422,   2.613e-4
1.423,   2.722e-4
1.424,   2.760e-4
1.425,   2.902e-4
1.426,   2.942e-4
1.427,   3.128e-4
1.428,   3.167e-4
1.429,   3.320e-4
1.430,   3.463e-4
1.431,   3.559e-4
1.432,   3.724e-4
1.433,   3.861e-4
1.434,   4.112e-4
1.435,   4.165e-4
1.436,   4.443e-4
1.437,   4.593e-4
1.438,   4.822e-4
1.439,   5.024e-4
1.440,   5.262e-4
1.441,   5.594e-4
1.442,   5.692e-4
1.443,   6.093e-4
1.444,   6.280e-4
1.445,   6.712e-4
1.446,   6.928e-4
1.447,   7.262e-4
1.448,   7.753e-4
1.449,   7.976e-4
1.450,   8.469e-4
1.451,   8.778e-4
1.452,   9.457e-4
1.453,   9.631e-4
1.454,   1.023e-3
1.455,   1.091e-3
1.456,   1.121e-3
1.457,   1.187e-3
1.458,   1.229e-3
1.459,   1.329e-3
1.460,   1.350e-3
1.461,   1.435e-3
1.462,   1.516e-3
1.463,   1.585e-3
1.464,   1.653e-3
1.465,   1.715e-3
1.466,   1.846e-3
1.467,   1.879e-3
1.468,   1.994e-3
1.469,   2.079e-3
1.470,   2.186e-3
1.471,   2.269e-3
1.472,   2.353e-3
1.473,   2.512e-3
1.474,   2.561e-3
1.475,   2.702e-3
1.476,   2.803e-3
1.477,   2.956e-3
1.478,   3.041e-3
1.479,   3.137e-3
1.480,   3.328e-3
1.481,   3.421e-3
1.482,   3.576e-3
1.483,   3.684e-3
1.484,   3.958e-3
1.485,   4.000e-3
1.486,   4.185e-3
1.487,   4.414e-3
1.488,   4.515e-3
1.489,   4.678e-3
1.490,   4.807e-3
1.491,   5.105e-3
1.492,   5.133e-3
1.493,   5.315e-3
1.494,   5.587e-3
1.495,   5.803e-3
1.496,   5.957e-3
1.497,   6.112e-3
1.498,   6.559e-3
1.499,   6.613e-3
1.500,   6.886e-3
1.501,   7.140e-3
1.502,   7.391e-3
1.503,   7.430e-3
1.504,   7.636e-3
1.505,   8.111e-3
1.506,   8.097e-3
1.507,   8.288e-3
1.508,   8.510e-3
1.509,   8.835e-3
1.510,   8.693e-3
1.511,   8.785e-3
1.512,   9.096e-3
1.513,   9.046e-3
1.514,   8.993e-3
1.515,   9.112e-3
1.516,   9.351e-3
1.517,   9.145e-3
1.518,   9.194e-3
1.519,   9.411e-3
1.520,   9.460e-3
1.521,   9.405e-3
1.522,   9.521e-3
1.523,   9.657e-3
1.524,   9.586e-3
1.525,   9.717e-3
1.526,   9.755e-3
1.527,   9.837e-3
1.528,   9.944e-3
1.529,   9.921e-3
1.530,   9.960e-3
1.531,   9.987e-3
1.532,   1.004e-2
1.533,   1.005e-2
1.534,   1.007e-2
1.535,   1.007e-2
1.536,   1.007e-2
1.537,   1.007e-2
1.538,   1.007e-2
1.539,   1.007e-2
1.540,   1.007e-2
1.541,   1.007e-2