File: Experimental Records and Raw Data/batch5/final400/B5_BEST_400_#1_Full(#14)-246mV.txt
May 31, 2023   15:24:05
Linear Sweep Voltammetry
File: d:\current work\al_oer\electrochemical test data\batch 5\400\B5_BEST_400_#1_Full(#14)-246mV.txt
Data Source:  Experiment
Instrument Model:  CHI660E
Header:
Note:

Init E (V) = 0.896

Final E (V) = 1.553

Scan Rate (V/s) = 0.010
Sample Interval (V) = 0.001
Quiet Time (sec) = 2
Sensitivity (A/V) = 0.001
Comp R (ohm) = 6.0

Results:

Channel 1:

Potential/V, Current/A
0.896,   1.324e-4
0.897,   1.432e-4
0.898,   1.434e-4
0.899,   1.427e-4
0.900,   1.400e-4
0.901,   1.379e-4
0.902,   1.414e-4
0.903,   1.397e-4
0.904,   1.387e-4
0.905,   1.357e-4
0.906,   1.348e-4
0.907,   1.371e-4
0.908,   1.359e-4
0.909,   1.342e-4
0.910,   1.310e-4
0.911,   1.335e-4
0.912,   1.327e-4
0.913,   1.318e-4
0.914,   1.295e-4
0.915,   1.279e-4
0.916,   1.305e-4
0.917,   1.290e-4
0.918,   1.284e-4
0.919,   1.256e-4
0.920,   1.252e-4
0.921,   1.278e-4
0.922,   1.262e-4
0.923,   1.248e-4
0.924,   1.223e-4
0.925,   1.231e-4
0.926,   1.250e-4
0.927,   1.235e-4
0.928,   1.214e-4
0.929,   1.196e-4
0.930,   1.218e-4
0.931,   1.213e-4
0.932,   1.209e-4
0.933,   1.182e-4
0.934,   1.172e-4
0.935,   1.202e-4
0.936,   1.186e-4
0.937,   1.186e-4
0.938,   1.154e-4
0.939,   1.160e-4
0.940,   1.179e-4
0.941,   1.166e-4
0.942,   1.153e-4
0.943,   1.122e-4
0.944,   1.148e-4
0.945,   1.156e-4
0.946,   1.148e-4
0.947,   1.128e-4
0.948,   1.106e-4
0.949,   1.142e-4
0.950,   1.128e-4
0.951,   1.130e-4
0.952,   1.098e-4
0.953,   1.102e-4
0.954,   1.124e-4
0.955,   1.113e-4
0.956,   1.105e-4
0.957,   1.077e-4
0.958,   1.095e-4
0.959,   1.110e-4
0.960,   1.104e-4
0.961,   1.075e-4
0.962,   1.069e-4
0.963,   1.090e-4
0.964,   1.082e-4
0.965,   1.083e-4
0.966,   1.062e-4
0.967,   1.058e-4
0.968,   1.080e-4
0.969,   1.069e-4
0.970,   1.064e-4
0.971,   1.042e-4
0.972,   1.054e-4
0.973,   1.072e-4
0.974,   1.064e-4
0.975,   1.049e-4
0.976,   1.027e-4
0.977,   1.054e-4
0.978,   1.050e-4
0.979,   1.047e-4
0.980,   1.029e-4
0.981,   1.017e-4
0.982,   1.051e-4
0.983,   1.038e-4
0.984,   1.036e-4
0.985,   1.011e-4
0.986,   1.014e-4
0.987,   1.041e-4
0.988,   1.029e-4
0.989,   1.020e-4
0.990,   9.967e-5
0.991,   1.016e-4
0.992,   1.028e-4
0.993,   1.022e-4
0.994,   1.005e-4
0.995,   9.941e-5
0.996,   1.019e-4
0.997,   1.010e-4
0.998,   1.015e-4
0.999,   9.862e-5
1.000,   9.878e-5
1.001,   1.017e-4
1.002,   1.001e-4
1.003,   1.000e-4
1.004,   9.781e-5
1.005,   9.897e-5
1.006,   1.013e-4
1.007,   9.990e-5
1.008,   9.848e-5
1.009,   9.714e-5
1.010,   9.970e-5
1.011,   9.914e-5
1.012,   9.934e-5
1.013,   9.743e-5
1.014,   9.658e-5
1.015,   9.979e-5
1.016,   9.848e-5
1.017,   9.826e-5
1.018,   9.621e-5
1.019,   9.681e-5
1.020,   9.912e-5
1.021,   9.806e-5
1.022,   9.746e-5
1.023,   9.517e-5
1.024,   9.752e-5
1.025,   9.796e-5
1.026,   9.773e-5
1.027,   9.672e-5
1.028,   9.457e-5
1.029,   9.785e-5
1.030,   9.704e-5
1.031,   9.725e-5
1.032,   9.526e-5
1.033,   9.527e-5
1.034,   9.784e-5
1.035,   9.665e-5
1.036,   9.616e-5
1.037,   9.449e-5
1.038,   9.560e-5
1.039,   9.731e-5
1.040,   9.640e-5
1.041,   9.513e-5
1.042,   9.428e-5
1.043,   9.649e-5
1.044,   9.567e-5
1.045,   9.643e-5
1.046,   9.443e-5
1.047,   9.352e-5
1.048,   9.684e-5
1.049,   9.536e-5
1.050,   9.547e-5
1.051,   9.357e-5
1.052,   9.431e-5
1.053,   9.641e-5
1.054,   9.574e-5
1.055,   9.473e-5
1.056,   9.297e-5
1.057,   9.538e-5
1.058,   9.561e-5
1.059,   9.603e-5
1.060,   9.365e-5
1.061,   9.271e-5
1.062,   9.610e-5
1.063,   9.519e-5
1.064,   9.530e-5
1.065,   9.323e-5
1.066,   9.319e-5
1.067,   9.605e-5
1.068,   9.525e-5
1.069,   9.501e-5
1.070,   9.275e-5
1.071,   9.452e-5
1.072,   9.552e-5
1.073,   9.520e-5
1.074,   9.435e-5
1.075,   9.214e-5
1.076,   9.557e-5
1.077,   9.590e-5
1.078,   9.531e-5
1.079,   9.295e-5
1.080,   9.302e-5
1.081,   9.613e-5
1.082,   9.509e-5
1.083,   9.486e-5
1.084,   9.296e-5
1.085,   9.383e-5
1.086,   9.599e-5
1.087,   9.522e-5
1.088,   9.415e-5
1.089,   9.275e-5
1.090,   9.524e-5
1.091,   9.546e-5
1.092,   9.544e-5
1.093,   9.347e-5
1.094,   9.324e-5
1.095,   9.616e-5
1.096,   9.524e-5
1.097,   9.510e-5
1.098,   9.312e-5
1.099,   9.396e-5
1.100,   9.688e-5
1.101,   9.518e-5
1.102,   9.503e-5
1.103,   9.320e-5
1.104,   9.531e-5
1.105,   9.592e-5
1.106,   9.640e-5
1.107,   9.484e-5
1.108,   9.342e-5
1.109,   9.679e-5
1.110,   9.591e-5
1.111,   9.623e-5
1.112,   9.447e-5
1.113,   9.411e-5
1.114,   9.728e-5
1.115,   9.628e-5
1.116,   9.619e-5
1.117,   9.394e-5
1.118,   9.560e-5
1.119,   9.693e-5
1.120,   9.697e-5
1.121,   9.547e-5
1.122,   9.411e-5
1.123,   9.728e-5
1.124,   9.707e-5
1.125,   9.716e-5
1.126,   9.539e-5
1.127,   9.464e-5
1.128,   9.841e-5
1.129,   9.689e-5
1.130,   9.735e-5
1.131,   9.562e-5
1.132,   9.653e-5
1.133,   9.869e-5
1.134,   9.784e-5
1.135,   9.717e-5
1.136,   9.520e-5
1.137,   9.798e-5
1.138,   9.849e-5
1.139,   9.873e-5
1.140,   9.666e-5
1.141,   9.538e-5
1.142,   9.978e-5
1.143,   9.843e-5
1.144,   9.917e-5
1.145,   9.658e-5
1.146,   9.593e-5
1.147,   1.003e-4
1.148,   9.921e-5
1.149,   9.887e-5
1.150,   9.669e-5
1.151,   9.872e-5
1.152,   1.001e-4
1.153,   9.996e-5
1.154,   9.853e-5
1.155,   9.678e-5
1.156,   1.007e-4
1.157,   1.001e-4
1.158,   1.006e-4
1.159,   9.836e-5
1.160,   9.789e-5
1.161,   1.017e-4
1.162,   1.003e-4
1.163,   1.008e-4
1.164,   9.821e-5
1.165,   9.979e-5
1.166,   1.019e-4
1.167,   1.008e-4
1.168,   1.005e-4
1.169,   9.847e-5
1.170,   1.010e-4
1.171,   1.017e-4
1.172,   1.021e-4
1.173,   1.002e-4
1.174,   9.899e-5
1.175,   1.029e-4
1.176,   1.017e-4
1.177,   1.024e-4
1.178,   1.004e-4
1.179,   9.996e-5
1.180,   1.031e-4
1.181,   1.026e-4
1.182,   1.021e-4
1.183,   9.957e-5
1.184,   1.020e-4
1.185,   1.034e-4
1.186,   1.035e-4
1.187,   1.020e-4
1.188,   9.959e-5
1.189,   1.043e-4
1.190,   1.034e-4
1.191,   1.037e-4
1.192,   1.016e-4
1.193,   1.011e-4
1.194,   1.048e-4
1.195,   1.040e-4
1.196,   1.037e-4
1.197,   1.009e-4
1.198,   1.036e-4
1.199,   1.043e-4
1.200,   1.049e-4
1.201,   1.033e-4
1.202,   1.016e-4
1.203,   1.052e-4
1.204,   1.045e-4
1.205,   1.053e-4
1.206,   1.033e-4
1.207,   1.019e-4
1.208,   1.066e-4
1.209,   1.051e-4
1.210,   1.056e-4
1.211,   1.030e-4
1.212,   1.033e-4
1.213,   1.070e-4
1.214,   1.070e-4
1.215,   1.051e-4
1.216,   1.030e-4
1.217,   1.056e-4
1.218,   1.064e-4
1.219,   1.068e-4
1.220,   1.048e-4
1.221,   1.027e-4
1.222,   1.087e-4
1.223,   1.075e-4
1.224,   1.071e-4
1.225,   1.052e-4
1.226,   1.040e-4
1.227,   1.086e-4
1.228,   1.080e-4
1.229,   1.073e-4
1.230,   1.047e-4
1.231,   1.066e-4
1.232,   1.089e-4
1.233,   1.088e-4
1.234,   1.069e-4
1.235,   1.053e-4
1.236,   1.083e-4
1.237,   1.097e-4
1.238,   1.088e-4
1.239,   1.075e-4
1.240,   1.056e-4
1.241,   1.103e-4
1.242,   1.092e-4
1.243,   1.096e-4
1.244,   1.067e-4
1.245,   1.069e-4
1.246,   1.106e-4
1.247,   1.100e-4
1.248,   1.088e-4
1.249,   1.069e-4
1.250,   1.107e-4
1.251,   1.108e-4
1.252,   1.103e-4
1.253,   1.086e-4
1.254,   1.070e-4
1.255,   1.117e-4
1.256,   1.106e-4
1.257,   1.111e-4
1.258,   1.086e-4
1.259,   1.087e-4
1.260,   1.123e-4
1.261,   1.115e-4
1.262,   1.111e-4
1.263,   1.082e-4
1.264,   1.107e-4
1.265,   1.119e-4
1.266,   1.117e-4
1.267,   1.107e-4
1.268,   1.085e-4
1.269,   1.139e-4
1.270,   1.123e-4
1.271,   1.125e-4
1.272,   1.105e-4
1.273,   1.094e-4
1.274,   1.140e-4
1.275,   1.125e-4
1.276,   1.121e-4
1.277,   1.099e-4
1.278,   1.120e-4
1.279,   1.141e-4
1.280,   1.131e-4
1.281,   1.124e-4
1.282,   1.111e-4
1.283,   1.149e-4
1.284,   1.137e-4
1.285,   1.143e-4
1.286,   1.126e-4
1.287,   1.112e-4
1.288,   1.156e-4
1.289,   1.148e-4
1.290,   1.140e-4
1.291,   1.126e-4
1.292,   1.136e-4
1.293,   1.159e-4
1.294,   1.150e-4
1.295,   1.149e-4
1.296,   1.125e-4
1.297,   1.158e-4
1.298,   1.173e-4
1.299,   1.159e-4
1.300,   1.148e-4
1.301,   1.138e-4
1.302,   1.180e-4
1.303,   1.172e-4
1.304,   1.175e-4
1.305,   1.151e-4
1.306,   1.152e-4
1.307,   1.192e-4
1.308,   1.174e-4
1.309,   1.179e-4
1.310,   1.155e-4
1.311,   1.180e-4
1.312,   1.196e-4
1.313,   1.187e-4
1.314,   1.180e-4
1.315,   1.161e-4
1.316,   1.206e-4
1.317,   1.196e-4
1.318,   1.209e-4
1.319,   1.183e-4
1.320,   1.176e-4
1.321,   1.218e-4
1.322,   1.205e-4
1.323,   1.211e-4
1.324,   1.185e-4
1.325,   1.207e-4
1.326,   1.230e-4
1.327,   1.221e-4
1.328,   1.215e-4
1.329,   1.196e-4
1.330,   1.229e-4
1.331,   1.239e-4
1.332,   1.242e-4
1.333,   1.214e-4
1.334,   1.208e-4
1.335,   1.257e-4
1.336,   1.244e-4
1.337,   1.252e-4
1.338,   1.229e-4
1.339,   1.234e-4
1.340,   1.279e-4
1.341,   1.262e-4
1.342,   1.267e-4
1.343,   1.237e-4
1.344,   1.268e-4
1.345,   1.283e-4
1.346,   1.283e-4
1.347,   1.270e-4
1.348,   1.245e-4
1.349,   1.301e-4
1.350,   1.300e-4
1.351,   1.295e-4
1.352,   1.281e-4
1.353,   1.283e-4
1.354,   1.322e-4
1.355,   1.316e-4
1.356,   1.322e-4
1.357,   1.294e-4
1.358,   1.319e-4
1.359,   1.359e-4
1.360,   1.341e-4
1.361,   1.334e-4
1.362,   1.315e-4
1.363,   1.362e-4
1.364,   1.363e-4
1.365,   1.371e-4
1.366,   1.352e-4
1.367,   1.326e-4
1.368,   1.402e-4
1.369,   1.390e-4
1.370,   1.394e-4
1.371,   1.368e-4
1.372,   1.388e-4
1.373,   1.432e-4
1.374,   1.421e-4
1.375,   1.418e-4
1.376,   1.396e-4
1.377,   1.440e-4
1.378,   1.463e-4
1.379,   1.464e-4
1.380,   1.435e-4
1.381,   1.432e-4
1.382,   1.490e-4
1.383,   1.497e-4
1.384,   1.505e-4
1.385,   1.486e-4
1.386,   1.483e-4
1.387,   1.549e-4
1.388,   1.542e-4
1.389,   1.545e-4
1.390,   1.519e-4
1.391,   1.565e-4
1.392,   1.610e-4
1.393,   1.611e-4
1.394,   1.590e-4
1.395,   1.578e-4
1.396,   1.655e-4
1.397,   1.667e-4
1.398,   1.679e-4
1.399,   1.668e-4
1.400,   1.676e-4
1.401,   1.745e-4
1.402,   1.745e-4
1.403,   1.771e-4
1.404,   1.751e-4
1.405,   1.796e-4
1.406,   1.856e-4
1.407,   1.861e-4
1.408,   1.882e-4
1.409,   1.864e-4
1.410,   1.937e-4
1.411,   1.991e-4
1.412,   2.019e-4
1.413,   2.023e-4
1.414,   2.031e-4
1.415,   2.145e-4
1.416,   2.153e-4
1.417,   2.215e-4
1.418,   2.211e-4
1.419,   2.249e-4
1.420,   2.392e-4
1.421,   2.404e-4
1.422,   2.472e-4
1.423,   2.453e-4
1.424,   2.572e-4
1.425,   2.694e-4
1.426,   2.733e-4
1.427,   2.800e-4
1.428,   2.809e-4
1.429,   2.994e-4
1.430,   3.088e-4
1.431,   3.192e-4
1.432,   3.213e-4
1.433,   3.291e-4
1.434,   3.556e-4
1.435,   3.621e-4
1.436,   3.760e-4
1.437,   3.786e-4
1.438,   3.921e-4
1.439,   4.259e-4
1.440,   4.345e-4
1.441,   4.492e-4
1.442,   4.532e-4
1.443,   4.845e-4
1.444,   5.090e-4
1.445,   5.282e-4
1.446,   5.403e-4
1.447,   5.512e-4
1.448,   5.992e-4
1.449,   6.192e-4
1.450,   6.491e-4
1.451,   6.541e-4
1.452,   6.768e-4
1.453,   7.431e-4
1.454,   7.608e-4
1.455,   7.961e-4
1.456,   8.013e-4
1.457,   8.527e-4
1.458,   9.146e-4
1.459,   9.436e-4
1.460,   9.695e-4
1.461,   9.815e-4
1.462,   1.081e-3
1.463,   1.119e-3
1.464,   1.166e-3
1.465,   1.191e-3
1.466,   1.217e-3
1.467,   1.337e-3
1.468,   1.371e-3
1.469,   1.433e-3
1.470,   1.446e-3
1.471,   1.514e-3
1.472,   1.638e-3
1.473,   1.687e-3
1.474,   1.750e-3
1.475,   1.761e-3
1.476,   1.878e-3
1.477,   1.976e-3
1.478,   2.058e-3
1.479,   2.109e-3
1.480,   2.125e-3
1.481,   2.310e-3
1.482,   2.368e-3
1.483,   2.463e-3
1.484,   2.496e-3
1.485,   2.574e-3
1.486,   2.754e-3
1.487,   2.826e-3
1.488,   2.932e-3
1.489,   2.939e-3
1.490,   3.100e-3
1.491,   3.271e-3
1.492,   3.354e-3
1.493,   3.427e-3
1.494,   3.424e-3
1.495,   3.665e-3
1.496,   3.781e-3
1.497,   3.937e-3
1.498,   3.960e-3
1.499,   3.952e-3
1.500,   4.250e-3
1.501,   4.371e-3
1.502,   4.513e-3
1.503,   4.547e-3
1.504,   4.627e-3
1.505,   4.893e-3
1.506,   5.054e-3
1.507,   5.194e-3
1.508,   5.187e-3
1.509,   5.385e-3
1.510,   5.587e-3
1.511,   5.757e-3
1.512,   5.822e-3
1.513,   5.862e-3
1.514,   6.253e-3
1.515,   6.390e-3
1.516,   6.581e-3
1.517,   6.548e-3
1.518,   6.562e-3
1.519,   7.008e-3
1.520,   7.129e-3
1.521,   7.299e-3
1.522,   7.181e-3
1.523,   7.473e-3
1.524,   7.795e-3
1.525,   7.968e-3
1.526,   7.992e-3
1.527,   7.783e-3
1.528,   8.106e-3
1.529,   8.361e-3
1.530,   8.647e-3
1.531,   8.567e-3
1.532,   8.568e-3
1.533,   8.972e-3
1.534,   9.115e-3
1.535,   9.248e-3
1.536,   9.238e-3
1.537,   9.221e-3
1.538,   9.557e-3
1.539,   9.660e-3
1.540,   9.682e-3
1.541,   9.514e-3
1.542,   9.657e-3
1.543,   9.858e-3
1.544,   9.875e-3
1.545,   9.868e-3
1.546,   9.754e-3
1.547,   9.877e-3
1.548,   9.965e-3
1.549,   1.001e-2
1.550,   9.996e-3
1.551,   9.936e-3
1.552,   1.004e-2
1.553,   1.004e-2