File: Experimental Records and Raw Data/batch5/final400/B5_BEST_400_#1_Full(#3)-209mV.txt
May 30, 2023   15:36:48
Linear Sweep Voltammetry
File: d:\current work\al_oer\electrochemical test data\batch 5\400\B5_BEST_400_#1_Full(#3)-209mV.txt
Data Source:  Experiment
Instrument Model:  CHI660E
Header:
Note:

Init E (V) = 0.900

Final E (V) = 1.509

Scan Rate (V/s) = 0.010
Sample Interval (V) = 0.001
Quiet Time (sec) = 2
Sensitivity (A/V) = 0.001
Comp R (ohm) = 5.0

Results:

Channel 1:

Potential/V, Current/A
0.900,   2.996e-4
0.901,   3.368e-4
0.902,   3.311e-4
0.903,   3.255e-4
0.904,   3.166e-4
0.905,   3.077e-4
0.906,   3.000e-4
0.907,   2.922e-4
0.908,   2.871e-4
0.909,   2.814e-4
0.910,   2.732e-4
0.911,   2.697e-4
0.912,   2.641e-4
0.913,   2.609e-4
0.914,   2.542e-4
0.915,   2.510e-4
0.916,   2.478e-4
0.917,   2.445e-4
0.918,   2.410e-4
0.919,   2.380e-4
0.920,   2.332e-4
0.921,   2.324e-4
0.922,   2.272e-4
0.923,   2.252e-4
0.924,   2.235e-4
0.925,   2.209e-4
0.926,   2.175e-4
0.927,   2.161e-4
0.928,   2.153e-4
0.929,   2.131e-4
0.930,   2.113e-4
0.931,   2.079e-4
0.932,   2.074e-4
0.933,   2.053e-4
0.934,   2.043e-4
0.935,   2.025e-4
0.936,   2.005e-4
0.937,   2.004e-4
0.938,   1.984e-4
0.939,   1.973e-4
0.940,   1.959e-4
0.941,   1.953e-4
0.942,   1.921e-4
0.943,   1.918e-4
0.944,   1.911e-4
0.945,   1.910e-4
0.946,   1.894e-4
0.947,   1.873e-4
0.948,   1.893e-4
0.949,   1.872e-4
0.950,   1.858e-4
0.951,   1.849e-4
0.952,   1.833e-4
0.953,   1.828e-4
0.954,   1.834e-4
0.955,   1.810e-4
0.956,   1.804e-4
0.957,   1.785e-4
0.958,   1.788e-4
0.959,   1.781e-4
0.960,   1.778e-4
0.961,   1.780e-4
0.962,   1.765e-4
0.963,   1.762e-4
0.964,   1.758e-4
0.965,   1.740e-4
0.966,   1.746e-4
0.967,   1.750e-4
0.968,   1.729e-4
0.969,   1.728e-4
0.970,   1.728e-4
0.971,   1.726e-4
0.972,   1.725e-4
0.973,   1.719e-4
0.974,   1.703e-4
0.975,   1.709e-4
0.976,   1.694e-4
0.977,   1.674e-4
0.978,   1.695e-4
0.979,   1.678e-4
0.980,   1.682e-4
0.981,   1.676e-4
0.982,   1.674e-4
0.983,   1.673e-4
0.984,   1.664e-4
0.985,   1.664e-4
0.986,   1.661e-4
0.987,   1.658e-4
0.988,   1.665e-4
0.989,   1.643e-4
0.990,   1.647e-4
0.991,   1.650e-4
0.992,   1.659e-4
0.993,   1.644e-4
0.994,   1.635e-4
0.995,   1.623e-4
0.996,   1.641e-4
0.997,   1.620e-4
0.998,   1.628e-4
0.999,   1.638e-4
1.000,   1.623e-4
1.001,   1.614e-4
1.002,   1.616e-4
1.003,   1.627e-4
1.004,   1.631e-4
1.005,   1.623e-4
1.006,   1.615e-4
1.007,   1.609e-4
1.008,   1.609e-4
1.009,   1.597e-4
1.010,   1.596e-4
1.011,   1.608e-4
1.012,   1.606e-4
1.013,   1.602e-4
1.014,   1.598e-4
1.015,   1.594e-4
1.016,   1.613e-4
1.017,   1.597e-4
1.018,   1.591e-4
1.019,   1.594e-4
1.020,   1.604e-4
1.021,   1.588e-4
1.022,   1.591e-4
1.023,   1.592e-4
1.024,   1.597e-4
1.025,   1.593e-4
1.026,   1.589e-4
1.027,   1.585e-4
1.028,   1.595e-4
1.029,   1.585e-4
1.030,   1.594e-4
1.031,   1.576e-4
1.032,   1.595e-4
1.033,   1.576e-4
1.034,   1.583e-4
1.035,   1.573e-4
1.036,   1.578e-4
1.037,   1.601e-4
1.038,   1.592e-4
1.039,   1.583e-4
1.040,   1.581e-4
1.041,   1.576e-4
1.042,   1.568e-4
1.043,   1.578e-4
1.044,   1.591e-4
1.045,   1.582e-4
1.046,   1.577e-4
1.047,   1.584e-4
1.048,   1.580e-4
1.049,   1.589e-4
1.050,   1.583e-4
1.051,   1.583e-4
1.052,   1.590e-4
1.053,   1.586e-4
1.054,   1.597e-4
1.055,   1.578e-4
1.056,   1.584e-4
1.057,   1.590e-4
1.058,   1.603e-4
1.059,   1.576e-4
1.060,   1.581e-4
1.061,   1.605e-4
1.062,   1.583e-4
1.063,   1.586e-4
1.064,   1.592e-4
1.065,   1.605e-4
1.066,   1.588e-4
1.067,   1.577e-4
1.068,   1.611e-4
1.069,   1.602e-4
1.070,   1.598e-4
1.071,   1.600e-4
1.072,   1.590e-4
1.073,   1.609e-4
1.074,   1.607e-4
1.075,   1.586e-4
1.076,   1.614e-4
1.077,   1.591e-4
1.078,   1.629e-4
1.079,   1.597e-4
1.080,   1.599e-4
1.081,   1.612e-4
1.082,   1.615e-4
1.083,   1.611e-4
1.084,   1.631e-4
1.085,   1.606e-4
1.086,   1.615e-4
1.087,   1.627e-4
1.088,   1.623e-4
1.089,   1.626e-4
1.090,   1.625e-4
1.091,   1.629e-4
1.092,   1.629e-4
1.093,   1.645e-4
1.094,   1.626e-4
1.095,   1.637e-4
1.096,   1.639e-4
1.097,   1.638e-4
1.098,   1.660e-4
1.099,   1.652e-4
1.100,   1.636e-4
1.101,   1.651e-4
1.102,   1.650e-4
1.103,   1.655e-4
1.104,   1.649e-4
1.105,   1.666e-4
1.106,   1.662e-4
1.107,   1.668e-4
1.108,   1.666e-4
1.109,   1.667e-4
1.110,   1.692e-4
1.111,   1.672e-4
1.112,   1.673e-4
1.113,   1.686e-4
1.114,   1.688e-4
1.115,   1.678e-4
1.116,   1.694e-4
1.117,   1.689e-4
1.118,   1.717e-4
1.119,   1.706e-4
1.120,   1.706e-4
1.121,   1.703e-4
1.122,   1.708e-4
1.123,   1.717e-4
1.124,   1.713e-4
1.125,   1.695e-4
1.126,   1.723e-4
1.127,   1.728e-4
1.128,   1.721e-4
1.129,   1.725e-4
1.130,   1.733e-4
1.131,   1.732e-4
1.132,   1.743e-4
1.133,   1.738e-4
1.134,   1.749e-4
1.135,   1.748e-4
1.136,   1.748e-4
1.137,   1.753e-4
1.138,   1.768e-4
1.139,   1.763e-4
1.140,   1.762e-4
1.141,   1.754e-4
1.142,   1.782e-4
1.143,   1.782e-4
1.144,   1.762e-4
1.145,   1.779e-4
1.146,   1.785e-4
1.147,   1.787e-4
1.148,   1.788e-4
1.149,   1.789e-4
1.150,   1.790e-4
1.151,   1.796e-4
1.152,   1.801e-4
1.153,   1.816e-4
1.154,   1.803e-4
1.155,   1.806e-4
1.156,   1.831e-4
1.157,   1.815e-4
1.158,   1.822e-4
1.159,   1.830e-4
1.160,   1.834e-4
1.161,   1.837e-4
1.162,   1.840e-4
1.163,   1.840e-4
1.164,   1.858e-4
1.165,   1.858e-4
1.166,   1.855e-4
1.167,   1.850e-4
1.168,   1.861e-4
1.169,   1.876e-4
1.170,   1.863e-4
1.171,   1.871e-4
1.172,   1.889e-4
1.173,   1.887e-4
1.174,   1.889e-4
1.175,   1.912e-4
1.176,   1.895e-4
1.177,   1.901e-4
1.178,   1.917e-4
1.179,   1.924e-4
1.180,   1.920e-4
1.181,   1.916e-4
1.182,   1.927e-4
1.183,   1.937e-4
1.184,   1.939e-4
1.185,   1.943e-4
1.186,   1.931e-4
1.187,   1.948e-4
1.188,   1.959e-4
1.189,   1.963e-4
1.190,   1.965e-4
1.191,   1.970e-4
1.192,   1.970e-4
1.193,   1.983e-4
1.194,   1.984e-4
1.195,   1.989e-4
1.196,   2.003e-4
1.197,   2.018e-4
1.198,   2.014e-4
1.199,   2.015e-4
1.200,   2.012e-4
1.201,   2.020e-4
1.202,   2.026e-4
1.203,   2.031e-4
1.204,   2.036e-4
1.205,   2.042e-4
1.206,   2.032e-4
1.207,   2.034e-4
1.208,   2.052e-4
1.209,   2.059e-4
1.210,   2.080e-4
1.211,   2.069e-4
1.212,   2.061e-4
1.213,   2.079e-4
1.214,   2.089e-4
1.215,   2.094e-4
1.216,   2.117e-4
1.217,   2.108e-4
1.218,   2.110e-4
1.219,   2.111e-4
1.220,   2.101e-4
1.221,   2.124e-4
1.222,   2.125e-4
1.223,   2.137e-4
1.224,   2.132e-4
1.225,   2.150e-4
1.226,   2.148e-4
1.227,   2.161e-4
1.228,   2.163e-4
1.229,   2.185e-4
1.230,   2.175e-4
1.231,   2.181e-4
1.232,   2.195e-4
1.233,   2.189e-4
1.234,   2.189e-4
1.235,   2.197e-4
1.236,   2.207e-4
1.237,   2.208e-4
1.238,   2.225e-4
1.239,   2.244e-4
1.240,   2.204e-4
1.241,   2.246e-4
1.242,   2.234e-4
1.243,   2.257e-4
1.244,   2.264e-4
1.245,   2.232e-4
1.246,   2.244e-4
1.247,   2.267e-4
1.248,   2.277e-4
1.249,   2.280e-4
1.250,   2.292e-4
1.251,   2.282e-4
1.252,   2.296e-4
1.253,   2.295e-4
1.254,   2.312e-4
1.255,   2.311e-4
1.256,   2.312e-4
1.257,   2.312e-4
1.258,   2.353e-4
1.259,   2.333e-4
1.260,   2.324e-4
1.261,   2.337e-4
1.262,   2.355e-4
1.263,   2.362e-4
1.264,   2.365e-4
1.265,   2.366e-4
1.266,   2.377e-4
1.267,   2.385e-4
1.268,   2.384e-4
1.269,   2.394e-4
1.270,   2.406e-4
1.271,   2.404e-4
1.272,   2.400e-4
1.273,   2.417e-4
1.274,   2.421e-4
1.275,   2.430e-4
1.276,   2.435e-4
1.277,   2.429e-4
1.278,   2.461e-4
1.279,   2.456e-4
1.280,   2.454e-4
1.281,   2.453e-4
1.282,   2.470e-4
1.283,   2.485e-4
1.284,   2.492e-4
1.285,   2.489e-4
1.286,   2.490e-4
1.287,   2.504e-4
1.288,   2.508e-4
1.289,   2.523e-4
1.290,   2.521e-4
1.291,   2.531e-4
1.292,   2.545e-4
1.293,   2.561e-4
1.294,   2.548e-4
1.295,   2.560e-4
1.296,   2.561e-4
1.297,   2.569e-4
1.298,   2.566e-4
1.299,   2.609e-4
1.300,   2.607e-4
1.301,   2.605e-4
1.302,   2.596e-4
1.303,   2.614e-4
1.304,   2.632e-4
1.305,   2.632e-4
1.306,   2.641e-4
1.307,   2.652e-4
1.308,   2.647e-4
1.309,   2.663e-4
1.310,   2.668e-4
1.311,   2.673e-4
1.312,   2.672e-4
1.313,   2.714e-4
1.314,   2.682e-4
1.315,   2.699e-4
1.316,   2.721e-4
1.317,   2.731e-4
1.318,   2.748e-4
1.319,   2.750e-4
1.320,   2.748e-4
1.321,   2.774e-4
1.322,   2.778e-4
1.323,   2.778e-4
1.324,   2.794e-4
1.325,   2.815e-4
1.326,   2.832e-4
1.327,   2.841e-4
1.328,   2.851e-4
1.329,   2.847e-4
1.330,   2.886e-4
1.331,   2.871e-4
1.332,   2.889e-4
1.333,   2.901e-4
1.334,   2.910e-4
1.335,   2.925e-4
1.336,   2.950e-4
1.337,   2.929e-4
1.338,   2.970e-4
1.339,   2.975e-4
1.340,   2.973e-4
1.341,   3.005e-4
1.342,   3.029e-4
1.343,   3.020e-4
1.344,   3.047e-4
1.345,   3.063e-4
1.346,   3.062e-4
1.347,   3.088e-4
1.348,   3.107e-4
1.349,   3.103e-4
1.350,   3.146e-4
1.351,   3.158e-4
1.352,   3.168e-4
1.353,   3.208e-4
1.354,   3.212e-4
1.355,   3.195e-4
1.356,   3.232e-4
1.357,   3.252e-4
1.358,   3.275e-4
1.359,   3.316e-4
1.360,   3.304e-4
1.361,   3.329e-4
1.362,   3.362e-4
1.363,   3.401e-4
1.364,   3.379e-4
1.365,   3.420e-4
1.366,   3.430e-4
1.367,   3.495e-4
1.368,   3.492e-4
1.369,   3.525e-4
1.370,   3.564e-4
1.371,   3.590e-4
1.372,   3.609e-4
1.373,   3.650e-4
1.374,   3.678e-4
1.375,   3.716e-4
1.376,   3.752e-4
1.377,   3.776e-4
1.378,   3.817e-4
1.379,   3.855e-4
1.380,   3.898e-4
1.381,   3.935e-4
1.382,   3.999e-4
1.383,   4.059e-4
1.384,   4.073e-4
1.385,   4.131e-4
1.386,   4.182e-4
1.387,   4.244e-4
1.388,   4.323e-4
1.389,   4.361e-4
1.390,   4.434e-4
1.391,   4.521e-4
1.392,   4.574e-4
1.393,   4.645e-4
1.394,   4.720e-4
1.395,   4.809e-4
1.396,   4.899e-4
1.397,   4.995e-4
1.398,   5.065e-4
1.399,   5.215e-4
1.400,   5.309e-4
1.401,   5.370e-4
1.402,   5.529e-4
1.403,   5.660e-4
1.404,   5.775e-4
1.405,   5.918e-4
1.406,   6.078e-4
1.407,   6.204e-4
1.408,   6.413e-4
1.409,   6.589e-4
1.410,   6.743e-4
1.411,   6.938e-4
1.412,   7.179e-4
1.413,   7.383e-4
1.414,   7.586e-4
1.415,   7.870e-4
1.416,   8.118e-4
1.417,   8.396e-4
1.418,   8.646e-4
1.419,   9.000e-4
1.420,   9.310e-4
1.421,   9.583e-4
1.422,   9.963e-4
1.423,   1.038e-3
1.424,   1.072e-3
1.425,   1.113e-3
1.426,   1.154e-3
1.427,   1.203e-3
1.428,   1.257e-3
1.429,   1.302e-3
1.430,   1.348e-3
1.431,   1.405e-3
1.432,   1.462e-3
1.433,   1.528e-3
1.434,   1.585e-3
1.435,   1.637e-3
1.436,   1.710e-3
1.437,   1.781e-3
1.438,   1.834e-3
1.439,   1.910e-3
1.440,   1.989e-3
1.441,   2.058e-3
1.442,   2.141e-3
1.443,   2.214e-3
1.444,   2.284e-3
1.445,   2.384e-3
1.446,   2.458e-3
1.447,   2.540e-3
1.448,   2.646e-3
1.449,   2.733e-3
1.450,   2.832e-3
1.451,   2.928e-3
1.452,   3.029e-3
1.453,   3.148e-3
1.454,   3.247e-3
1.455,   3.331e-3
1.456,   3.446e-3
1.457,   3.558e-3
1.458,   3.642e-3
1.459,   3.753e-3
1.460,   3.864e-3
1.461,   3.989e-3
1.462,   4.109e-3
1.463,   4.212e-3
1.464,   4.323e-3
1.465,   4.470e-3
1.466,   4.581e-3
1.467,   4.690e-3
1.468,   4.828e-3
1.469,   4.935e-3
1.470,   5.061e-3
1.471,   5.195e-3
1.472,   5.306e-3
1.473,   5.449e-3
1.474,   5.598e-3
1.475,   5.702e-3
1.476,   5.841e-3
1.477,   5.995e-3
1.478,   6.111e-3
1.479,   6.248e-3
1.480,   6.348e-3
1.481,   6.531e-3
1.482,   6.689e-3
1.483,   6.792e-3
1.484,   6.901e-3
1.485,   7.092e-3
1.486,   7.238e-3
1.487,   7.372e-3
1.488,   7.526e-3
1.489,   7.636e-3
1.490,   7.834e-3
1.491,   7.970e-3
1.492,   8.089e-3
1.493,   8.258e-3
1.494,   8.416e-3
1.495,   8.547e-3
1.496,   8.697e-3
1.497,   8.790e-3
1.498,   8.905e-3
1.499,   9.086e-3
1.500,   9.117e-3
1.501,   9.213e-3
1.502,   9.452e-3
1.503,   9.540e-3
1.504,   9.689e-3
1.505,   9.833e-3
1.506,   9.905e-3
1.507,   1.002e-2
1.508,   1.006e-2
1.509,   1.007e-2