File: Experimental Records and Raw Data/batch5/final400/B5_BEST_400_#1_High_Quality(#30)-234mV.txt
May 30, 2023   21:13:01
Linear Sweep Voltammetry
File: d:\current work\al_oer\electrochemical test data\batch 5\400\B5_BEST_400_#1_High_Quality(#30)-234mV.txt
Data Source:  Experiment
Instrument Model:  CHI660E
Header:
Note:

Init E (V) = 0.901

Final E (V) = 1.536

Scan Rate (V/s) = 0.010
Sample Interval (V) = 0.001
Quiet Time (sec) = 2
Sensitivity (A/V) = 0.001
Comp R (ohm) = 4.9

Results:

Channel 1:

Potential/V, Current/A
0.901,   2.495e-4
0.902,   2.517e-4
0.903,   2.439e-4
0.904,   2.356e-4
0.905,   2.280e-4
0.906,   2.214e-4
0.907,   2.144e-4
0.908,   2.088e-4
0.909,   2.032e-4
0.910,   1.972e-4
0.911,   1.915e-4
0.912,   1.881e-4
0.913,   1.826e-4
0.914,   1.786e-4
0.915,   1.750e-4
0.916,   1.712e-4
0.917,   1.685e-4
0.918,   1.644e-4
0.919,   1.607e-4
0.920,   1.584e-4
0.921,   1.550e-4
0.922,   1.525e-4
0.923,   1.493e-4
0.924,   1.466e-4
0.925,   1.452e-4
0.926,   1.429e-4
0.927,   1.404e-4
0.928,   1.384e-4
0.929,   1.365e-4
0.930,   1.347e-4
0.931,   1.327e-4
0.932,   1.307e-4
0.933,   1.294e-4
0.934,   1.281e-4
0.935,   1.265e-4
0.936,   1.252e-4
0.937,   1.227e-4
0.938,   1.219e-4
0.939,   1.208e-4
0.940,   1.193e-4
0.941,   1.177e-4
0.942,   1.169e-4
0.943,   1.158e-4
0.944,   1.153e-4
0.945,   1.135e-4
0.946,   1.119e-4
0.947,   1.118e-4
0.948,   1.108e-4
0.949,   1.094e-4
0.950,   1.085e-4
0.951,   1.078e-4
0.952,   1.073e-4
0.953,   1.061e-4
0.954,   1.057e-4
0.955,   1.042e-4
0.956,   1.038e-4
0.957,   1.034e-4
0.958,   1.020e-4
0.959,   1.013e-4
0.960,   1.010e-4
0.961,   1.007e-4
0.962,   9.931e-5
0.963,   9.899e-5
0.964,   9.828e-5
0.965,   9.818e-5
0.966,   9.695e-5
0.967,   9.686e-5
0.968,   9.562e-5
0.969,   9.562e-5
0.970,   9.548e-5
0.971,   9.418e-5
0.972,   9.431e-5
0.973,   9.363e-5
0.974,   9.343e-5
0.975,   9.249e-5
0.976,   9.202e-5
0.977,   9.103e-5
0.978,   9.106e-5
0.979,   9.092e-5
0.980,   9.026e-5
0.981,   9.004e-5
0.982,   8.936e-5
0.983,   8.924e-5
0.984,   8.886e-5
0.985,   8.829e-5
0.986,   8.816e-5
0.987,   8.796e-5
0.988,   8.739e-5
0.989,   8.698e-5
0.990,   8.672e-5
0.991,   8.720e-5
0.992,   8.633e-5
0.993,   8.566e-5
0.994,   8.547e-5
0.995,   8.532e-5
0.996,   8.438e-5
0.997,   8.530e-5
0.998,   8.392e-5
0.999,   8.387e-5
1.000,   8.402e-5
1.001,   8.394e-5
1.002,   8.284e-5
1.003,   8.286e-5
1.004,   8.270e-5
1.005,   8.293e-5
1.006,   8.283e-5
1.007,   8.145e-5
1.008,   8.203e-5
1.009,   8.168e-5
1.010,   8.146e-5
1.011,   8.140e-5
1.012,   8.142e-5
1.013,   8.105e-5
1.014,   8.039e-5
1.015,   8.038e-5
1.016,   8.101e-5
1.017,   8.010e-5
1.018,   8.032e-5
1.019,   8.002e-5
1.020,   7.954e-5
1.021,   7.924e-5
1.022,   7.923e-5
1.023,   7.886e-5
1.024,   7.903e-5
1.025,   7.905e-5
1.026,   7.881e-5
1.027,   7.897e-5
1.028,   7.863e-5
1.029,   7.818e-5
1.030,   7.799e-5
1.031,   7.829e-5
1.032,   7.831e-5
1.033,   7.803e-5
1.034,   7.768e-5
1.035,   7.789e-5
1.036,   7.785e-5
1.037,   7.713e-5
1.038,   7.740e-5
1.039,   7.698e-5
1.040,   7.797e-5
1.041,   7.764e-5
1.042,   7.711e-5
1.043,   7.710e-5
1.044,   7.621e-5
1.045,   7.687e-5
1.046,   7.705e-5
1.047,   7.678e-5
1.048,   7.652e-5
1.049,   7.611e-5
1.050,   7.659e-5
1.051,   7.647e-5
1.052,   7.658e-5
1.053,   7.602e-5
1.054,   7.624e-5
1.055,   7.607e-5
1.056,   7.613e-5
1.057,   7.603e-5
1.058,   7.600e-5
1.059,   7.628e-5
1.060,   7.587e-5
1.061,   7.605e-5
1.062,   7.601e-5
1.063,   7.587e-5
1.064,   7.632e-5
1.065,   7.594e-5
1.066,   7.603e-5
1.067,   7.616e-5
1.068,   7.560e-5
1.069,   7.520e-5
1.070,   7.598e-5
1.071,   7.584e-5
1.072,   7.545e-5
1.073,   7.562e-5
1.074,   7.621e-5
1.075,   7.630e-5
1.076,   7.605e-5
1.077,   7.564e-5
1.078,   7.505e-5
1.079,   7.568e-5
1.080,   7.602e-5
1.081,   7.600e-5
1.082,   7.595e-5
1.083,   7.556e-5
1.084,   7.556e-5
1.085,   7.598e-5
1.086,   7.589e-5
1.087,   7.606e-5
1.088,   7.590e-5
1.089,   7.610e-5
1.090,   7.590e-5
1.091,   7.605e-5
1.092,   7.585e-5
1.093,   7.635e-5
1.094,   7.661e-5
1.095,   7.598e-5
1.096,   7.638e-5
1.097,   7.680e-5
1.098,   7.590e-5
1.099,   7.648e-5
1.100,   7.653e-5
1.101,   7.613e-5
1.102,   7.779e-5
1.103,   7.654e-5
1.104,   7.694e-5
1.105,   7.690e-5
1.106,   7.688e-5
1.107,   7.634e-5
1.108,   7.655e-5
1.109,   7.697e-5
1.110,   7.780e-5
1.111,   7.758e-5
1.112,   7.690e-5
1.113,   7.782e-5
1.114,   7.716e-5
1.115,   7.800e-5
1.116,   7.792e-5
1.117,   7.737e-5
1.118,   7.786e-5
1.119,   7.842e-5
1.120,   7.782e-5
1.121,   7.824e-5
1.122,   7.804e-5
1.123,   7.849e-5
1.124,   7.947e-5
1.125,   7.862e-5
1.126,   7.875e-5
1.127,   7.835e-5
1.128,   7.939e-5
1.129,   7.894e-5
1.130,   7.860e-5
1.131,   7.947e-5
1.132,   7.945e-5
1.133,   7.970e-5
1.134,   7.987e-5
1.135,   7.941e-5
1.136,   7.978e-5
1.137,   8.001e-5
1.138,   8.051e-5
1.139,   8.026e-5
1.140,   8.062e-5
1.141,   8.048e-5
1.142,   8.083e-5
1.143,   8.068e-5
1.144,   8.198e-5
1.145,   8.111e-5
1.146,   8.153e-5
1.147,   8.170e-5
1.148,   8.134e-5
1.149,   8.177e-5
1.150,   8.209e-5
1.151,   8.202e-5
1.152,   8.233e-5
1.153,   8.213e-5
1.154,   8.237e-5
1.155,   8.168e-5
1.156,   8.267e-5
1.157,   8.261e-5
1.158,   8.359e-5
1.159,   8.281e-5
1.160,   8.336e-5
1.161,   8.324e-5
1.162,   8.351e-5
1.163,   8.430e-5
1.164,   8.346e-5
1.165,   8.473e-5
1.166,   8.363e-5
1.167,   8.447e-5
1.168,   8.484e-5
1.169,   8.480e-5
1.170,   8.479e-5
1.171,   8.479e-5
1.172,   8.544e-5
1.173,   8.536e-5
1.174,   8.551e-5
1.175,   8.643e-5
1.176,   8.561e-5
1.177,   8.623e-5
1.178,   8.673e-5
1.179,   8.707e-5
1.180,   8.584e-5
1.181,   8.685e-5
1.182,   8.737e-5
1.183,   8.720e-5
1.184,   8.716e-5
1.185,   8.792e-5
1.186,   8.770e-5
1.187,   8.827e-5
1.188,   8.796e-5
1.189,   8.711e-5
1.190,   8.875e-5
1.191,   8.938e-5
1.192,   8.935e-5
1.193,   8.874e-5
1.194,   8.941e-5
1.195,   8.974e-5
1.196,   8.981e-5
1.197,   8.972e-5
1.198,   9.115e-5
1.199,   9.033e-5
1.200,   8.971e-5
1.201,   9.051e-5
1.202,   9.048e-5
1.203,   9.123e-5
1.204,   9.152e-5
1.205,   9.148e-5
1.206,   9.175e-5
1.207,   9.107e-5
1.208,   9.225e-5
1.209,   9.210e-5
1.210,   9.255e-5
1.211,   9.267e-5
1.212,   9.283e-5
1.213,   9.325e-5
1.214,   9.294e-5
1.215,   9.336e-5
1.216,   9.439e-5
1.217,   9.317e-5
1.218,   9.503e-5
1.219,   9.419e-5
1.220,   9.417e-5
1.221,   9.475e-5
1.222,   9.477e-5
1.223,   9.467e-5
1.224,   9.515e-5
1.225,   9.500e-5
1.226,   9.540e-5
1.227,   9.474e-5
1.228,   9.532e-5
1.229,   9.613e-5
1.230,   9.723e-5
1.231,   9.624e-5
1.232,   9.630e-5
1.233,   9.697e-5
1.234,   9.694e-5
1.235,   9.748e-5
1.236,   9.623e-5
1.237,   9.711e-5
1.238,   9.804e-5
1.239,   9.723e-5
1.240,   9.799e-5
1.241,   9.787e-5
1.242,   9.796e-5
1.243,   9.798e-5
1.244,   9.842e-5
1.245,   9.838e-5
1.246,   9.864e-5
1.247,   9.927e-5
1.248,   1.005e-4
1.249,   9.929e-5
1.250,   9.919e-5
1.251,   9.927e-5
1.252,   9.969e-5
1.253,   1.001e-4
1.254,   9.979e-5
1.255,   1.001e-4
1.256,   9.952e-5
1.257,   1.001e-4
1.258,   1.004e-4
1.259,   1.003e-4
1.260,   1.014e-4
1.261,   1.012e-4
1.262,   1.006e-4
1.263,   1.010e-4
1.264,   1.013e-4
1.265,   1.016e-4
1.266,   1.030e-4
1.267,   1.012e-4
1.268,   1.019e-4
1.269,   1.018e-4
1.270,   1.019e-4
1.271,   1.024e-4
1.272,   1.032e-4
1.273,   1.020e-4
1.274,   1.028e-4
1.275,   1.032e-4
1.276,   1.027e-4
1.277,   1.034e-4
1.278,   1.038e-4
1.279,   1.039e-4
1.280,   1.031e-4
1.281,   1.038e-4
1.282,   1.041e-4
1.283,   1.046e-4
1.284,   1.046e-4
1.285,   1.042e-4
1.286,   1.049e-4
1.287,   1.047e-4
1.288,   1.054e-4
1.289,   1.052e-4
1.290,   1.060e-4
1.291,   1.051e-4
1.292,   1.057e-4
1.293,   1.058e-4
1.294,   1.061e-4
1.295,   1.058e-4
1.296,   1.066e-4
1.297,   1.078e-4
1.298,   1.063e-4
1.299,   1.069e-4
1.300,   1.078e-4
1.301,   1.074e-4
1.302,   1.074e-4
1.303,   1.079e-4
1.304,   1.082e-4
1.305,   1.081e-4
1.306,   1.098e-4
1.307,   1.085e-4
1.308,   1.090e-4
1.309,   1.092e-4
1.310,   1.097e-4
1.311,   1.095e-4
1.312,   1.099e-4
1.313,   1.102e-4
1.314,   1.103e-4
1.315,   1.110e-4
1.316,   1.108e-4
1.317,   1.110e-4
1.318,   1.114e-4
1.319,   1.116e-4
1.320,   1.122e-4
1.321,   1.115e-4
1.322,   1.123e-4
1.323,   1.132e-4
1.324,   1.140e-4
1.325,   1.133e-4
1.326,   1.136e-4
1.327,   1.134e-4
1.328,   1.134e-4
1.329,   1.140e-4
1.330,   1.136e-4
1.331,   1.160e-4
1.332,   1.156e-4
1.333,   1.158e-4
1.334,   1.158e-4
1.335,   1.155e-4
1.336,   1.169e-4
1.337,   1.164e-4
1.338,   1.164e-4
1.339,   1.174e-4
1.340,   1.174e-4
1.341,   1.184e-4
1.342,   1.174e-4
1.343,   1.187e-4
1.344,   1.191e-4
1.345,   1.187e-4
1.346,   1.192e-4
1.347,   1.198e-4
1.348,   1.200e-4
1.349,   1.209e-4
1.350,   1.218e-4
1.351,   1.231e-4
1.352,   1.225e-4
1.353,   1.223e-4
1.354,   1.230e-4
1.355,   1.236e-4
1.356,   1.232e-4
1.357,   1.244e-4
1.358,   1.256e-4
1.359,   1.257e-4
1.360,   1.262e-4
1.361,   1.263e-4
1.362,   1.270e-4
1.363,   1.276e-4
1.364,   1.278e-4
1.365,   1.285e-4
1.366,   1.292e-4
1.367,   1.303e-4
1.368,   1.306e-4
1.369,   1.319e-4
1.370,   1.316e-4
1.371,   1.323e-4
1.372,   1.332e-4
1.373,   1.339e-4
1.374,   1.344e-4
1.375,   1.359e-4
1.376,   1.369e-4
1.377,   1.384e-4
1.378,   1.380e-4
1.379,   1.401e-4
1.380,   1.405e-4
1.381,   1.413e-4
1.382,   1.407e-4
1.383,   1.437e-4
1.384,   1.443e-4
1.385,   1.460e-4
1.386,   1.473e-4
1.387,   1.486e-4
1.388,   1.492e-4
1.389,   1.512e-4
1.390,   1.519e-4
1.391,   1.533e-4
1.392,   1.549e-4
1.393,   1.573e-4
1.394,   1.596e-4
1.395,   1.614e-4
1.396,   1.627e-4
1.397,   1.652e-4
1.398,   1.668e-4
1.399,   1.682e-4
1.400,   1.722e-4
1.401,   1.730e-4
1.402,   1.781e-4
1.403,   1.800e-4
1.404,   1.832e-4
1.405,   1.866e-4
1.406,   1.908e-4
1.407,   1.920e-4
1.408,   1.964e-4
1.409,   2.002e-4
1.410,   2.050e-4
1.411,   2.112e-4
1.412,   2.171e-4
1.413,   2.201e-4
1.414,   2.266e-4
1.415,   2.314e-4
1.416,   2.389e-4
1.417,   2.442e-4
1.418,   2.499e-4
1.419,   2.604e-4
1.420,   2.675e-4
1.421,   2.778e-4
1.422,   2.867e-4
1.423,   2.952e-4
1.424,   3.073e-4
1.425,   3.177e-4
1.426,   3.278e-4
1.427,   3.406e-4
1.428,   3.545e-4
1.429,   3.706e-4
1.430,   3.864e-4
1.431,   3.996e-4
1.432,   4.197e-4
1.433,   4.375e-4
1.434,   4.561e-4
1.435,   4.736e-4
1.436,   4.965e-4
1.437,   5.215e-4
1.438,   5.492e-4
1.439,   5.721e-4
1.440,   5.996e-4
1.441,   6.280e-4
1.442,   6.604e-4
1.443,   6.898e-4
1.444,   7.215e-4
1.445,   7.580e-4
1.446,   8.006e-4
1.447,   8.403e-4
1.448,   8.817e-4
1.449,   9.238e-4
1.450,   9.726e-4
1.451,   1.019e-3
1.452,   1.068e-3
1.453,   1.118e-3
1.454,   1.171e-3
1.455,   1.239e-3
1.456,   1.301e-3
1.457,   1.358e-3
1.458,   1.425e-3
1.459,   1.498e-3
1.460,   1.563e-3
1.461,   1.633e-3
1.462,   1.703e-3
1.463,   1.791e-3
1.464,   1.883e-3
1.465,   1.961e-3
1.466,   2.044e-3
1.467,   2.130e-3
1.468,   2.217e-3
1.469,   2.311e-3
1.470,   2.398e-3
1.471,   2.501e-3
1.472,   2.592e-3
1.473,   2.708e-3
1.474,   2.831e-3
1.475,   2.931e-3
1.476,   3.036e-3
1.477,   3.157e-3
1.478,   3.272e-3
1.479,   3.384e-3
1.480,   3.491e-3
1.481,   3.606e-3
1.482,   3.739e-3
1.483,   3.865e-3
1.484,   3.970e-3
1.485,   4.114e-3
1.486,   4.260e-3
1.487,   4.380e-3
1.488,   4.513e-3
1.489,   4.681e-3
1.490,   4.829e-3
1.491,   4.994e-3
1.492,   5.133e-3
1.493,   5.293e-3
1.494,   5.435e-3
1.495,   5.605e-3
1.496,   5.765e-3
1.497,   5.900e-3
1.498,   6.075e-3
1.499,   6.226e-3
1.500,   6.419e-3
1.501,   6.565e-3
1.502,   6.739e-3
1.503,   6.948e-3
1.504,   7.145e-3
1.505,   7.290e-3
1.506,   7.491e-3
1.507,   7.727e-3
1.508,   7.954e-3
1.509,   8.168e-3
1.510,   8.327e-3
1.511,   8.588e-3
1.512,   8.803e-3
1.513,   9.012e-3
1.514,   9.139e-3
1.515,   9.216e-3
1.516,   9.274e-3
1.517,   9.421e-3
1.518,   9.550e-3
1.519,   9.662e-3
1.520,   9.777e-3
1.521,   9.925e-3
1.522,   1.000e-2
1.523,   1.004e-2
1.524,   1.005e-2
1.525,   1.007e-2
1.526,   1.007e-2
1.527,   1.007e-2
1.528,   1.007e-2
1.529,   1.007e-2
1.530,   1.007e-2
1.531,   1.007e-2
1.532,   1.007e-2
1.533,   1.007e-2
1.534,   1.007e-2
1.535,   1.007e-2
1.536,   1.007e-2