File: Experimental Records, Raw Data, and Supplementary Notes and Figures/batch3/final400/B3_BEST_400_#8_Full-196mV.txt
Feb. 21, 2023   15:36:43
Linear Sweep Voltammetry
File: d:\current work\al_oer\electrochemical test data\batch 3\400\B3_BEST_400_#8_Full-196mV.txt
Data Source:  Experiment
Instrument Model:  CHI660E
Header:
Note:

Init E (V) = 1.099

Final E (V) = 1.498

Scan Rate (V/s) = 0.010
Sample Interval (V) = 0.001
Quiet Time (sec) = 2
Sensitivity (A/V) = 0.001
Comp R (ohm) = 5.1

Results:

Channel 1:

Potential/V, Current/A
1.099,   3.282e-4
1.100,   3.422e-4
1.101,   3.227e-4
1.102,   3.042e-4
1.103,   2.892e-4
1.104,   2.762e-4
1.105,   2.651e-4
1.106,   2.565e-4
1.107,   2.486e-4
1.108,   2.409e-4
1.109,   2.351e-4
1.110,   2.289e-4
1.111,   2.241e-4
1.112,   2.201e-4
1.113,   2.163e-4
1.114,   2.134e-4
1.115,   2.094e-4
1.116,   2.068e-4
1.117,   2.050e-4
1.118,   2.019e-4
1.119,   2.006e-4
1.120,   1.992e-4
1.121,   1.968e-4
1.122,   1.951e-4
1.123,   1.937e-4
1.124,   1.926e-4
1.125,   1.918e-4
1.126,   1.906e-4
1.127,   1.900e-4
1.128,   1.889e-4
1.129,   1.880e-4
1.130,   1.877e-4
1.131,   1.865e-4
1.132,   1.866e-4
1.133,   1.864e-4
1.134,   1.852e-4
1.135,   1.853e-4
1.136,   1.849e-4
1.137,   1.844e-4
1.138,   1.847e-4
1.139,   1.842e-4
1.140,   1.840e-4
1.141,   1.841e-4
1.142,   1.837e-4
1.143,   1.839e-4
1.144,   1.838e-4
1.145,   1.838e-4
1.146,   1.842e-4
1.147,   1.835e-4
1.148,   1.837e-4
1.149,   1.841e-4
1.150,   1.838e-4
1.151,   1.844e-4
1.152,   1.844e-4
1.153,   1.842e-4
1.154,   1.846e-4
1.155,   1.843e-4
1.156,   1.847e-4
1.157,   1.850e-4
1.158,   1.852e-4
1.159,   1.857e-4
1.160,   1.857e-4
1.161,   1.857e-4
1.162,   1.866e-4
1.163,   1.861e-4
1.164,   1.869e-4
1.165,   1.874e-4
1.166,   1.869e-4
1.167,   1.876e-4
1.168,   1.879e-4
1.169,   1.879e-4
1.170,   1.887e-4
1.171,   1.890e-4
1.172,   1.890e-4
1.173,   1.896e-4
1.174,   1.892e-4
1.175,   1.902e-4
1.176,   1.901e-4
1.177,   1.904e-4
1.178,   1.909e-4
1.179,   1.907e-4
1.180,   1.913e-4
1.181,   1.922e-4
1.182,   1.915e-4
1.183,   1.927e-4
1.184,   1.931e-4
1.185,   1.928e-4
1.186,   1.935e-4
1.187,   1.933e-4
1.188,   1.937e-4
1.189,   1.944e-4
1.190,   1.943e-4
1.191,   1.948e-4
1.192,   1.947e-4
1.193,   1.950e-4
1.194,   1.956e-4
1.195,   1.953e-4
1.196,   1.960e-4
1.197,   1.965e-4
1.198,   1.960e-4
1.199,   1.967e-4
1.200,   1.969e-4
1.201,   1.967e-4
1.202,   1.975e-4
1.203,   1.974e-4
1.204,   1.976e-4
1.205,   1.981e-4
1.206,   1.980e-4
1.207,   1.982e-4
1.208,   1.985e-4
1.209,   1.987e-4
1.210,   1.991e-4
1.211,   1.986e-4
1.212,   1.990e-4
1.213,   1.992e-4
1.214,   1.983e-4
1.215,   1.996e-4
1.216,   1.996e-4
1.217,   1.996e-4
1.218,   2.000e-4
1.219,   1.994e-4
1.220,   1.994e-4
1.221,   1.999e-4
1.222,   1.995e-4
1.223,   1.998e-4
1.224,   1.998e-4
1.225,   1.992e-4
1.226,   1.999e-4
1.227,   1.993e-4
1.228,   1.997e-4
1.229,   2.000e-4
1.230,   1.991e-4
1.231,   1.996e-4
1.232,   1.993e-4
1.233,   1.994e-4
1.234,   1.997e-4
1.235,   1.997e-4
1.236,   1.993e-4
1.237,   1.995e-4
1.238,   1.988e-4
1.239,   1.987e-4
1.240,   1.987e-4
1.241,   1.984e-4
1.242,   1.991e-4
1.243,   1.982e-4
1.244,   1.985e-4
1.245,   1.986e-4
1.246,   1.975e-4
1.247,   1.984e-4
1.248,   1.983e-4
1.249,   1.975e-4
1.250,   1.979e-4
1.251,   1.970e-4
1.252,   1.974e-4
1.253,   1.975e-4
1.254,   1.967e-4
1.255,   1.969e-4
1.256,   1.966e-4
1.257,   1.960e-4
1.258,   1.964e-4
1.259,   1.957e-4
1.260,   1.963e-4
1.261,   1.966e-4
1.262,   1.952e-4
1.263,   1.955e-4
1.264,   1.952e-4
1.265,   1.947e-4
1.266,   1.953e-4
1.267,   1.949e-4
1.268,   1.944e-4
1.269,   1.943e-4
1.270,   1.943e-4
1.271,   1.943e-4
1.272,   1.939e-4
1.273,   1.938e-4
1.274,   1.940e-4
1.275,   1.932e-4
1.276,   1.931e-4
1.277,   1.940e-4
1.278,   1.924e-4
1.279,   1.933e-4
1.280,   1.930e-4
1.281,   1.923e-4
1.282,   1.931e-4
1.283,   1.920e-4
1.284,   1.922e-4
1.285,   1.923e-4
1.286,   1.924e-4
1.287,   1.925e-4
1.288,   1.918e-4
1.289,   1.919e-4
1.290,   1.923e-4
1.291,   1.913e-4
1.292,   1.916e-4
1.293,   1.921e-4
1.294,   1.910e-4
1.295,   1.914e-4
1.296,   1.920e-4
1.297,   1.909e-4
1.298,   1.917e-4
1.299,   1.919e-4
1.300,   1.915e-4
1.301,   1.919e-4
1.302,   1.910e-4
1.303,   1.913e-4
1.304,   1.920e-4
1.305,   1.918e-4
1.306,   1.920e-4
1.307,   1.915e-4
1.308,   1.920e-4
1.309,   1.923e-4
1.310,   1.917e-4
1.311,   1.926e-4
1.312,   1.929e-4
1.313,   1.920e-4
1.314,   1.931e-4
1.315,   1.925e-4
1.316,   1.929e-4
1.317,   1.933e-4
1.318,   1.933e-4
1.319,   1.936e-4
1.320,   1.936e-4
1.321,   1.940e-4
1.322,   1.946e-4
1.323,   1.945e-4
1.324,   1.957e-4
1.325,   1.961e-4
1.326,   1.947e-4
1.327,   1.959e-4
1.328,   1.965e-4
1.329,   1.962e-4
1.330,   1.972e-4
1.331,   1.976e-4
1.332,   1.976e-4
1.333,   1.989e-4
1.334,   1.985e-4
1.335,   1.997e-4
1.336,   1.998e-4
1.337,   2.004e-4
1.338,   2.015e-4
1.339,   2.011e-4
1.340,   2.024e-4
1.341,   2.038e-4
1.342,   2.026e-4
1.343,   2.049e-4
1.344,   2.054e-4
1.345,   2.059e-4
1.346,   2.072e-4
1.347,   2.075e-4
1.348,   2.084e-4
1.349,   2.098e-4
1.350,   2.105e-4
1.351,   2.116e-4
1.352,   2.130e-4
1.353,   2.136e-4
1.354,   2.153e-4
1.355,   2.157e-4
1.356,   2.179e-4
1.357,   2.198e-4
1.358,   2.194e-4
1.359,   2.218e-4
1.360,   2.237e-4
1.361,   2.244e-4
1.362,   2.267e-4
1.363,   2.290e-4
1.364,   2.300e-4
1.365,   2.329e-4
1.366,   2.346e-4
1.367,   2.364e-4
1.368,   2.388e-4
1.369,   2.413e-4
1.370,   2.440e-4
1.371,   2.458e-4
1.372,   2.495e-4
1.373,   2.530e-4
1.374,   2.550e-4
1.375,   2.590e-4
1.376,   2.628e-4
1.377,   2.657e-4
1.378,   2.708e-4
1.379,   2.745e-4
1.380,   2.791e-4
1.381,   2.845e-4
1.382,   2.892e-4
1.383,   2.965e-4
1.384,   3.016e-4
1.385,   3.072e-4
1.386,   3.155e-4
1.387,   3.219e-4
1.388,   3.308e-4
1.389,   3.408e-4
1.390,   3.479e-4
1.391,   3.588e-4
1.392,   3.697e-4
1.393,   3.805e-4
1.394,   3.942e-4
1.395,   4.078e-4
1.396,   4.212e-4
1.397,   4.373e-4
1.398,   4.542e-4
1.399,   4.732e-4
1.400,   4.927e-4
1.401,   5.137e-4
1.402,   5.354e-4
1.403,   5.590e-4
1.404,   5.856e-4
1.405,   6.143e-4
1.406,   6.439e-4
1.407,   6.759e-4
1.408,   7.090e-4
1.409,   7.497e-4
1.410,   7.951e-4
1.411,   8.300e-4
1.412,   8.734e-4
1.413,   9.220e-4
1.414,   9.725e-4
1.415,   1.027e-3
1.416,   1.082e-3
1.417,   1.143e-3
1.418,   1.209e-3
1.419,   1.276e-3
1.420,   1.349e-3
1.421,   1.424e-3
1.422,   1.505e-3
1.423,   1.593e-3
1.424,   1.683e-3
1.425,   1.776e-3
1.426,   1.875e-3
1.427,   1.982e-3
1.428,   2.093e-3
1.429,   2.210e-3
1.430,   2.332e-3
1.431,   2.462e-3
1.432,   2.595e-3
1.433,   2.736e-3
1.434,   2.885e-3
1.435,   3.040e-3
1.436,   3.203e-3
1.437,   3.375e-3
1.438,   3.552e-3
1.439,   3.738e-3
1.440,   3.937e-3
1.441,   4.151e-3
1.442,   4.360e-3
1.443,   4.568e-3
1.444,   4.791e-3
1.445,   5.023e-3
1.446,   5.264e-3
1.447,   5.518e-3
1.448,   5.777e-3
1.449,   6.059e-3
1.450,   6.394e-3
1.451,   6.683e-3
1.452,   7.023e-3
1.453,   7.381e-3
1.454,   7.708e-3
1.455,   8.057e-3
1.456,   8.422e-3
1.457,   8.781e-3
1.458,   9.214e-3
1.459,   9.588e-3
1.460,   9.937e-3
1.461,   1.006e-2
1.462,   1.006e-2
1.463,   1.006e-2
1.464,   1.006e-2
1.465,   1.006e-2
1.466,   1.006e-2
1.467,   1.006e-2
1.468,   1.006e-2
1.469,   1.006e-2
1.470,   1.006e-2
1.471,   1.006e-2
1.472,   1.006e-2
1.473,   1.006e-2
1.474,   1.006e-2
1.475,   1.006e-2
1.476,   1.006e-2
1.477,   1.006e-2
1.478,   1.006e-2
1.479,   1.006e-2
1.480,   1.006e-2
1.481,   1.006e-2
1.482,   1.006e-2
1.483,   1.006e-2
1.484,   1.006e-2
1.485,   1.006e-2
1.486,   1.006e-2
1.487,   1.006e-2
1.488,   1.006e-2
1.489,   1.006e-2
1.490,   1.006e-2
1.491,   1.006e-2
1.492,   1.006e-2
1.493,   1.006e-2
1.494,   1.006e-2
1.495,   1.006e-2
1.496,   1.006e-2
1.497,   1.006e-2
1.498,   1.006e-2