File: Experimental Records, Raw Data, and Supplementary Notes and Figures/batch3/final400/B3_BEST_400_#1_Full-200mV.txt
Feb. 21, 2023   14:03:57
Linear Sweep Voltammetry
File: d:\current work\al_oer\electrochemical test data\batch 3\400\B3_BEST_400_#1_Full-200mV.txt
Data Source:  Experiment
Instrument Model:  CHI660E
Header:
Note:

Init E (V) = 1.099

Final E (V) = 1.466

Scan Rate (V/s) = 0.010
Sample Interval (V) = 0.001
Quiet Time (sec) = 2
Sensitivity (A/V) = 0.001
Comp R (ohm) = 7.5

Results:

Channel 1:

Potential/V, Current/A
1.099,   4.149e-4
1.100,   3.908e-4
1.101,   3.683e-4
1.102,   3.404e-4
1.103,   3.191e-4
1.104,   3.079e-4
1.105,   2.772e-4
1.106,   2.692e-4
1.107,   2.698e-4
1.108,   2.389e-4
1.109,   2.332e-4
1.110,   2.414e-4
1.111,   2.168e-4
1.112,   2.047e-4
1.113,   2.189e-4
1.114,   2.030e-4
1.115,   1.873e-4
1.116,   1.978e-4
1.117,   1.906e-4
1.118,   1.768e-4
1.119,   1.808e-4
1.120,   1.758e-4
1.121,   1.745e-4
1.122,   1.714e-4
1.123,   1.581e-4
1.124,   1.679e-4
1.125,   1.669e-4
1.126,   1.493e-4
1.127,   1.605e-4
1.128,   1.537e-4
1.129,   1.516e-4
1.130,   1.562e-4
1.131,   1.386e-4
1.132,   1.542e-4
1.133,   1.439e-4
1.134,   1.458e-4
1.135,   1.464e-4
1.136,   1.303e-4
1.137,   1.477e-4
1.138,   1.349e-4
1.139,   1.473e-4
1.140,   1.330e-4
1.141,   1.342e-4
1.142,   1.297e-4
1.143,   1.332e-4
1.144,   1.393e-4
1.145,   1.334e-4
1.146,   1.392e-4
1.147,   1.220e-4
1.148,   1.322e-4
1.149,   1.180e-4
1.150,   1.342e-4
1.151,   1.249e-4
1.152,   1.370e-4
1.153,   1.277e-4
1.154,   1.323e-4
1.155,   1.238e-4
1.156,   1.222e-4
1.157,   1.253e-4
1.158,   1.162e-4
1.159,   1.298e-4
1.160,   1.124e-4
1.161,   1.300e-4
1.162,   1.177e-4
1.163,   1.279e-4
1.164,   1.253e-4
1.165,   1.185e-4
1.166,   1.307e-4
1.167,   1.139e-4
1.168,   1.254e-4
1.169,   1.215e-4
1.170,   1.136e-4
1.171,   1.292e-4
1.172,   1.156e-4
1.173,   1.183e-4
1.174,   1.267e-4
1.175,   1.112e-4
1.176,   1.202e-4
1.177,   1.228e-4
1.178,   1.109e-4
1.179,   1.216e-4
1.180,   1.251e-4
1.181,   1.127e-4
1.182,   1.215e-4
1.183,   1.272e-4
1.184,   1.140e-4
1.185,   1.134e-4
1.186,   1.242e-4
1.187,   1.198e-4
1.188,   1.163e-4
1.189,   1.105e-4
1.190,   1.170e-4
1.191,   1.247e-4
1.192,   1.164e-4
1.193,   1.110e-4
1.194,   1.197e-4
1.195,   1.273e-4
1.196,   1.205e-4
1.197,   1.035e-4
1.198,   1.178e-4
1.199,   1.282e-4
1.200,   1.128e-4
1.201,   1.112e-4
1.202,   1.179e-4
1.203,   1.295e-4
1.204,   1.035e-4
1.205,   1.204e-4
1.206,   1.253e-4
1.207,   1.072e-4
1.208,   1.152e-4
1.209,   1.272e-4
1.210,   1.100e-4
1.211,   1.133e-4
1.212,   1.262e-4
1.213,   1.083e-4
1.214,   1.172e-4
1.215,   1.246e-4
1.216,   1.067e-4
1.217,   1.263e-4
1.218,   1.129e-4
1.219,   1.090e-4
1.220,   1.336e-4
1.221,   1.030e-4
1.222,   1.207e-4
1.223,   1.186e-4
1.224,   1.106e-4
1.225,   1.312e-4
1.226,   9.768e-5
1.227,   1.309e-4
1.228,   1.109e-4
1.229,   1.205e-4
1.230,   1.166e-4
1.231,   1.092e-4
1.232,   1.306e-4
1.233,   1.059e-4
1.234,   1.314e-4
1.235,   9.990e-5
1.236,   1.321e-4
1.237,   1.018e-4
1.238,   1.375e-4
1.239,   1.003e-4
1.240,   1.327e-4
1.241,   9.872e-5
1.242,   1.343e-4
1.243,   1.024e-4
1.244,   1.360e-4
1.245,   1.033e-4
1.246,   1.299e-4
1.247,   1.048e-4
1.248,   1.253e-4
1.249,   1.135e-4
1.250,   1.184e-4
1.251,   1.268e-4
1.252,   1.070e-4
1.253,   1.337e-4
1.254,   1.009e-4
1.255,   1.325e-4
1.256,   1.101e-4
1.257,   1.181e-4
1.258,   1.264e-4
1.259,   1.039e-4
1.260,   1.357e-4
1.261,   1.075e-4
1.262,   1.203e-4
1.263,   1.296e-4
1.264,   1.020e-4
1.265,   1.339e-4
1.266,   1.156e-4
1.267,   1.116e-4
1.268,   1.355e-4
1.269,   1.074e-4
1.270,   1.189e-4
1.271,   1.335e-4
1.272,   1.046e-4
1.273,   1.231e-4
1.274,   1.329e-4
1.275,   1.046e-4
1.276,   1.232e-4
1.277,   1.332e-4
1.278,   1.066e-4
1.279,   1.184e-4
1.280,   1.357e-4
1.281,   1.119e-4
1.282,   1.116e-4
1.283,   1.349e-4
1.284,   1.240e-4
1.285,   1.066e-4
1.286,   1.237e-4
1.287,   1.349e-4
1.288,   1.154e-4
1.289,   1.104e-4
1.290,   1.308e-4
1.291,   1.343e-4
1.292,   1.145e-4
1.293,   1.114e-4
1.294,   1.281e-4
1.295,   1.342e-4
1.296,   1.191e-4
1.297,   1.104e-4
1.298,   1.214e-4
1.299,   1.331e-4
1.300,   1.328e-4
1.301,   1.174e-4
1.302,   1.125e-4
1.303,   1.228e-4
1.304,   1.326e-4
1.305,   1.327e-4
1.306,   1.247e-4
1.307,   1.154e-4
1.308,   1.178e-4
1.309,   1.242e-4
1.310,   1.320e-4
1.311,   1.356e-4
1.312,   1.296e-4
1.313,   1.234e-4
1.314,   1.183e-4
1.315,   1.176e-4
1.316,   1.240e-4
1.317,   1.297e-4
1.318,   1.320e-4
1.319,   1.334e-4
1.320,   1.328e-4
1.321,   1.332e-4
1.322,   1.282e-4
1.323,   1.253e-4
1.324,   1.270e-4
1.325,   1.282e-4
1.326,   1.245e-4
1.327,   1.270e-4
1.328,   1.298e-4
1.329,   1.289e-4
1.330,   1.290e-4
1.331,   1.320e-4
1.332,   1.310e-4
1.333,   1.310e-4
1.334,   1.346e-4
1.335,   1.346e-4
1.336,   1.338e-4
1.337,   1.379e-4
1.338,   1.352e-4
1.339,   1.365e-4
1.340,   1.392e-4
1.341,   1.340e-4
1.342,   1.357e-4
1.343,   1.306e-4
1.344,   1.304e-4
1.345,   1.301e-4
1.346,   1.302e-4
1.347,   1.408e-4
1.348,   1.423e-4
1.349,   1.522e-4
1.350,   1.455e-4
1.351,   1.383e-4
1.352,   1.286e-4
1.353,   1.331e-4
1.354,   1.433e-4
1.355,   1.573e-4
1.356,   1.532e-4
1.357,   1.396e-4
1.358,   1.296e-4
1.359,   1.460e-4
1.360,   1.639e-4
1.361,   1.562e-4
1.362,   1.345e-4
1.363,   1.402e-4
1.364,   1.736e-4
1.365,   1.599e-4
1.366,   1.345e-4
1.367,   1.596e-4
1.368,   1.801e-4
1.369,   1.457e-4
1.370,   1.511e-4
1.371,   1.917e-4
1.372,   1.522e-4
1.373,   1.586e-4
1.374,   1.999e-4
1.375,   1.524e-4
1.376,   1.821e-4
1.377,   1.954e-4
1.378,   1.552e-4
1.379,   2.190e-4
1.380,   1.718e-4
1.381,   2.062e-4
1.382,   2.019e-4
1.383,   1.947e-4
1.384,   2.314e-4
1.385,   1.893e-4
1.386,   2.499e-4
1.387,   1.970e-4
1.388,   2.703e-4
1.389,   2.146e-4
1.390,   2.828e-4
1.391,   2.328e-4
1.392,   2.895e-4
1.393,   2.735e-4
1.394,   2.845e-4
1.395,   3.231e-4
1.396,   2.873e-4
1.397,   3.644e-4
1.398,   3.176e-4
1.399,   3.632e-4
1.400,   3.974e-4
1.401,   3.583e-4
1.402,   4.408e-4
1.403,   4.381e-4
1.404,   4.253e-4
1.405,   5.070e-4
1.406,   5.076e-4
1.407,   4.967e-4
1.408,   5.847e-4
1.409,   6.006e-4
1.410,   5.893e-4
1.411,   6.551e-4
1.412,   7.212e-4
1.413,   7.096e-4
1.414,   7.468e-4
1.415,   8.384e-4
1.416,   8.725e-4
1.417,   8.792e-4
1.418,   9.467e-4
1.419,   1.038e-3
1.420,   1.073e-3
1.421,   1.101e-3
1.422,   1.187e-3
1.423,   1.287e-3
1.424,   1.330e-3
1.425,   1.376e-3
1.426,   1.478e-3
1.427,   1.591e-3
1.428,   1.643e-3
1.429,   1.711e-3
1.430,   1.841e-3
1.431,   1.960e-3
1.432,   2.016e-3
1.433,   2.132e-3
1.434,   2.287e-3
1.435,   2.385e-3
1.436,   2.476e-3
1.437,   2.640e-3
1.438,   2.794e-3
1.439,   2.907e-3
1.440,   3.064e-3
1.441,   3.234e-3
1.442,   3.418e-3
1.443,   3.588e-3
1.444,   3.752e-3
1.445,   4.000e-3
1.446,   4.241e-3
1.447,   4.563e-3
1.448,   4.808e-3
1.449,   5.123e-3
1.450,   5.435e-3
1.451,   5.737e-3
1.452,   6.044e-3
1.453,   6.319e-3
1.454,   6.569e-3
1.455,   6.889e-3
1.456,   7.292e-3
1.457,   7.544e-3
1.458,   7.757e-3
1.459,   8.153e-3
1.460,   8.488e-3
1.461,   8.669e-3
1.462,   9.153e-3
1.463,   9.417e-3
1.464,   9.984e-3
1.465,   1.006e-2
1.466,   1.006e-2