File: Experimental Records, Raw Data, and Supplementary Notes and Figures/batch3/final400/B3_BEST_400_#5_Full-242mV.txt
Feb. 20, 2023   16:16:37
Linear Sweep Voltammetry
File: d:\current work\al_oer\electrochemical test data\batch 3\400\B3_BEST_400_#5_Full-242mV.txt
Data Source:  Experiment
Instrument Model:  CHI660E
Header:
Note:

Init E (V) = 1.099

Final E (V) = 1.597

Scan Rate (V/s) = 0.010
Sample Interval (V) = 0.001
Quiet Time (sec) = 2
Sensitivity (A/V) = 0.001
Comp R (ohm) = 6.0

Results:

Channel 1:

Potential/V, Current/A
1.099,   2.004e-4
1.100,   1.900e-4
1.101,   1.784e-4
1.102,   1.677e-4
1.103,   1.582e-4
1.104,   1.498e-4
1.105,   1.423e-4
1.106,   1.358e-4
1.107,   1.298e-4
1.108,   1.244e-4
1.109,   1.196e-4
1.110,   1.152e-4
1.111,   1.112e-4
1.112,   1.073e-4
1.113,   1.040e-4
1.114,   1.009e-4
1.115,   9.788e-5
1.116,   9.528e-5
1.117,   9.282e-5
1.118,   9.050e-5
1.119,   8.831e-5
1.120,   8.632e-5
1.121,   8.432e-5
1.122,   8.262e-5
1.123,   8.094e-5
1.124,   7.932e-5
1.125,   7.783e-5
1.126,   7.647e-5
1.127,   7.511e-5
1.128,   7.387e-5
1.129,   7.264e-5
1.130,   7.157e-5
1.131,   7.044e-5
1.132,   6.946e-5
1.133,   6.852e-5
1.134,   6.749e-5
1.135,   6.661e-5
1.136,   6.580e-5
1.137,   6.500e-5
1.138,   6.436e-5
1.139,   6.368e-5
1.140,   6.302e-5
1.141,   6.237e-5
1.142,   6.175e-5
1.143,   6.125e-5
1.144,   6.063e-5
1.145,   6.011e-5
1.146,   5.964e-5
1.147,   5.918e-5
1.148,   5.874e-5
1.149,   5.831e-5
1.150,   5.790e-5
1.151,   5.754e-5
1.152,   5.721e-5
1.153,   5.684e-5
1.154,   5.653e-5
1.155,   5.622e-5
1.156,   5.598e-5
1.157,   5.571e-5
1.158,   5.543e-5
1.159,   5.523e-5
1.160,   5.491e-5
1.161,   5.468e-5
1.162,   5.452e-5
1.163,   5.429e-5
1.164,   5.417e-5
1.165,   5.399e-5
1.166,   5.371e-5
1.167,   5.363e-5
1.168,   5.344e-5
1.169,   5.328e-5
1.170,   5.314e-5
1.171,   5.302e-5
1.172,   5.292e-5
1.173,   5.274e-5
1.174,   5.257e-5
1.175,   5.257e-5
1.176,   5.245e-5
1.177,   5.234e-5
1.178,   5.228e-5
1.179,   5.217e-5
1.180,   5.214e-5
1.181,   5.210e-5
1.182,   5.199e-5
1.183,   5.200e-5
1.184,   5.204e-5
1.185,   5.193e-5
1.186,   5.189e-5
1.187,   5.184e-5
1.188,   5.182e-5
1.189,   5.186e-5
1.190,   5.186e-5
1.191,   5.187e-5
1.192,   5.180e-5
1.193,   5.183e-5
1.194,   5.185e-5
1.195,   5.175e-5
1.196,   5.179e-5
1.197,   5.179e-5
1.198,   5.176e-5
1.199,   5.180e-5
1.200,   5.180e-5
1.201,   5.178e-5
1.202,   5.180e-5
1.203,   5.188e-5
1.204,   5.189e-5
1.205,   5.197e-5
1.206,   5.193e-5
1.207,   5.204e-5
1.208,   5.198e-5
1.209,   5.204e-5
1.210,   5.206e-5
1.211,   5.204e-5
1.212,   5.215e-5
1.213,   5.223e-5
1.214,   5.218e-5
1.215,   5.232e-5
1.216,   5.236e-5
1.217,   5.237e-5
1.218,   5.247e-5
1.219,   5.245e-5
1.220,   5.257e-5
1.221,   5.268e-5
1.222,   5.270e-5
1.223,   5.273e-5
1.224,   5.284e-5
1.225,   5.280e-5
1.226,   5.290e-5
1.227,   5.289e-5
1.228,   5.298e-5
1.229,   5.309e-5
1.230,   5.305e-5
1.231,   5.315e-5
1.232,   5.321e-5
1.233,   5.323e-5
1.234,   5.332e-5
1.235,   5.340e-5
1.236,   5.346e-5
1.237,   5.360e-5
1.238,   5.349e-5
1.239,   5.360e-5
1.240,   5.361e-5
1.241,   5.368e-5
1.242,   5.376e-5
1.243,   5.371e-5
1.244,   5.376e-5
1.245,   5.390e-5
1.246,   5.379e-5
1.247,   5.391e-5
1.248,   5.405e-5
1.249,   5.401e-5
1.250,   5.407e-5
1.251,   5.409e-5
1.252,   5.417e-5
1.253,   5.424e-5
1.254,   5.428e-5
1.255,   5.437e-5
1.256,   5.438e-5
1.257,   5.440e-5
1.258,   5.441e-5
1.259,   5.439e-5
1.260,   5.453e-5
1.261,   5.463e-5
1.262,   5.454e-5
1.263,   5.462e-5
1.264,   5.470e-5
1.265,   5.470e-5
1.266,   5.479e-5
1.267,   5.483e-5
1.268,   5.488e-5
1.269,   5.490e-5
1.270,   5.493e-5
1.271,   5.497e-5
1.272,   5.504e-5
1.273,   5.517e-5
1.274,   5.525e-5
1.275,   5.531e-5
1.276,   5.538e-5
1.277,   5.543e-5
1.278,   5.540e-5
1.279,   5.543e-5
1.280,   5.547e-5
1.281,   5.549e-5
1.282,   5.558e-5
1.283,   5.555e-5
1.284,   5.562e-5
1.285,   5.571e-5
1.286,   5.578e-5
1.287,   5.584e-5
1.288,   5.589e-5
1.289,   5.590e-5
1.290,   5.594e-5
1.291,   5.591e-5
1.292,   5.607e-5
1.293,   5.610e-5
1.294,   5.609e-5
1.295,   5.619e-5
1.296,   5.626e-5
1.297,   5.639e-5
1.298,   5.655e-5
1.299,   5.652e-5
1.300,   5.667e-5
1.301,   5.664e-5
1.302,   5.664e-5
1.303,   5.668e-5
1.304,   5.679e-5
1.305,   5.684e-5
1.306,   5.699e-5
1.307,   5.693e-5
1.308,   5.714e-5
1.309,   5.729e-5
1.310,   5.725e-5
1.311,   5.739e-5
1.312,   5.747e-5
1.313,   5.753e-5
1.314,   5.766e-5
1.315,   5.767e-5
1.316,   5.787e-5
1.317,   5.794e-5
1.318,   5.794e-5
1.319,   5.801e-5
1.320,   5.810e-5
1.321,   5.831e-5
1.322,   5.848e-5
1.323,   5.854e-5
1.324,   5.880e-5
1.325,   5.896e-5
1.326,   5.897e-5
1.327,   5.920e-5
1.328,   5.929e-5
1.329,   5.934e-5
1.330,   5.958e-5
1.331,   5.970e-5
1.332,   5.982e-5
1.333,   5.999e-5
1.334,   6.011e-5
1.335,   6.032e-5
1.336,   6.053e-5
1.337,   6.075e-5
1.338,   6.102e-5
1.339,   6.105e-5
1.340,   6.133e-5
1.341,   6.160e-5
1.342,   6.170e-5
1.343,   6.195e-5
1.344,   6.212e-5
1.345,   6.228e-5
1.346,   6.263e-5
1.347,   6.280e-5
1.348,   6.300e-5
1.349,   6.335e-5
1.350,   6.354e-5
1.351,   6.386e-5
1.352,   6.410e-5
1.353,   6.434e-5
1.354,   6.482e-5
1.355,   6.497e-5
1.356,   6.530e-5
1.357,   6.563e-5
1.358,   6.588e-5
1.359,   6.631e-5
1.360,   6.679e-5
1.361,   6.706e-5
1.362,   6.756e-5
1.363,   6.802e-5
1.364,   6.834e-5
1.365,   6.895e-5
1.366,   6.942e-5
1.367,   6.995e-5
1.368,   7.042e-5
1.369,   7.107e-5
1.370,   7.172e-5
1.371,   7.225e-5
1.372,   7.289e-5
1.373,   7.373e-5
1.374,   7.444e-5
1.375,   7.521e-5
1.376,   7.611e-5
1.377,   7.694e-5
1.378,   7.788e-5
1.379,   7.889e-5
1.380,   7.991e-5
1.381,   8.097e-5
1.382,   8.211e-5
1.383,   8.332e-5
1.384,   8.459e-5
1.385,   8.605e-5
1.386,   8.757e-5
1.387,   8.895e-5
1.388,   9.061e-5
1.389,   9.247e-5
1.390,   9.425e-5
1.391,   9.636e-5
1.392,   9.849e-5
1.393,   1.007e-4
1.394,   1.031e-4
1.395,   1.056e-4
1.396,   1.084e-4
1.397,   1.112e-4
1.398,   1.143e-4
1.399,   1.179e-4
1.400,   1.212e-4
1.401,   1.249e-4
1.402,   1.289e-4
1.403,   1.331e-4
1.404,   1.375e-4
1.405,   1.422e-4
1.406,   1.471e-4
1.407,   1.525e-4
1.408,   1.582e-4
1.409,   1.641e-4
1.410,   1.705e-4
1.411,   1.771e-4
1.412,   1.842e-4
1.413,   1.918e-4
1.414,   1.995e-4
1.415,   2.079e-4
1.416,   2.165e-4
1.417,   2.258e-4
1.418,   2.356e-4
1.419,   2.457e-4
1.420,   2.565e-4
1.421,   2.677e-4
1.422,   2.795e-4
1.423,   2.917e-4
1.424,   3.045e-4
1.425,   3.180e-4
1.426,   3.321e-4
1.427,   3.469e-4
1.428,   3.621e-4
1.429,   3.782e-4
1.430,   3.951e-4
1.431,   4.127e-4
1.432,   4.309e-4
1.433,   4.500e-4
1.434,   4.699e-4
1.435,   4.904e-4
1.436,   5.115e-4
1.437,   5.337e-4
1.438,   5.564e-4
1.439,   5.802e-4
1.440,   6.049e-4
1.441,   6.302e-4
1.442,   6.564e-4
1.443,   6.835e-4
1.444,   7.123e-4
1.445,   7.418e-4
1.446,   7.718e-4
1.447,   8.031e-4
1.448,   8.352e-4
1.449,   8.683e-4
1.450,   9.017e-4
1.451,   9.364e-4
1.452,   9.721e-4
1.453,   1.009e-3
1.454,   1.046e-3
1.455,   1.085e-3
1.456,   1.124e-3
1.457,   1.164e-3
1.458,   1.206e-3
1.459,   1.248e-3
1.460,   1.293e-3
1.461,   1.339e-3
1.462,   1.385e-3
1.463,   1.432e-3
1.464,   1.479e-3
1.465,   1.528e-3
1.466,   1.578e-3
1.467,   1.628e-3
1.468,   1.679e-3
1.469,   1.730e-3
1.470,   1.782e-3
1.471,   1.835e-3
1.472,   1.889e-3
1.473,   1.944e-3
1.474,   2.000e-3
1.475,   2.057e-3
1.476,   2.115e-3
1.477,   2.173e-3
1.478,   2.231e-3
1.479,   2.291e-3
1.480,   2.352e-3
1.481,   2.413e-3
1.482,   2.475e-3
1.483,   2.535e-3
1.484,   2.595e-3
1.485,   2.657e-3
1.486,   2.719e-3
1.487,   2.782e-3
1.488,   2.849e-3
1.489,   2.916e-3
1.490,   2.983e-3
1.491,   3.047e-3
1.492,   3.113e-3
1.493,   3.179e-3
1.494,   3.243e-3
1.495,   3.308e-3
1.496,   3.377e-3
1.497,   3.448e-3
1.498,   3.517e-3
1.499,   3.583e-3
1.500,   3.650e-3
1.501,   3.715e-3
1.502,   3.781e-3
1.503,   3.849e-3
1.504,   3.914e-3
1.505,   3.979e-3
1.506,   4.049e-3
1.507,   4.118e-3
1.508,   4.188e-3
1.509,   4.255e-3
1.510,   4.326e-3
1.511,   4.393e-3
1.512,   4.467e-3
1.513,   4.547e-3
1.514,   4.611e-3
1.515,   4.679e-3
1.516,   4.747e-3
1.517,   4.815e-3
1.518,   4.883e-3
1.519,   4.944e-3
1.520,   5.005e-3
1.521,   5.067e-3
1.522,   5.136e-3
1.523,   5.205e-3
1.524,   5.275e-3
1.525,   5.361e-3
1.526,   5.429e-3
1.527,   5.495e-3
1.528,   5.570e-3
1.529,   5.644e-3
1.530,   5.701e-3
1.531,   5.758e-3
1.532,   5.814e-3
1.533,   5.881e-3
1.534,   5.979e-3
1.535,   6.044e-3
1.536,   6.098e-3
1.537,   6.157e-3
1.538,   6.222e-3
1.539,   6.299e-3
1.540,   6.358e-3
1.541,   6.421e-3
1.542,   6.482e-3
1.543,   6.543e-3
1.544,   6.603e-3
1.545,   6.677e-3
1.546,   6.737e-3
1.547,   6.800e-3
1.548,   6.891e-3
1.549,   6.962e-3
1.550,   7.024e-3
1.551,   7.094e-3
1.552,   7.148e-3
1.553,   7.229e-3
1.554,   7.300e-3
1.555,   7.360e-3
1.556,   7.422e-3
1.557,   7.485e-3
1.558,   7.536e-3
1.559,   7.616e-3
1.560,   7.703e-3
1.561,   7.780e-3
1.562,   7.825e-3
1.563,   7.888e-3
1.564,   7.957e-3
1.565,   8.027e-3
1.566,   8.081e-3
1.567,   8.139e-3
1.568,   8.216e-3
1.569,   8.259e-3
1.570,   8.313e-3
1.571,   8.371e-3
1.572,   8.458e-3
1.573,   8.514e-3
1.574,   8.589e-3
1.575,   8.653e-3
1.576,   8.686e-3
1.577,   8.744e-3
1.578,   8.780e-3
1.579,   8.834e-3
1.580,   8.907e-3
1.581,   8.987e-3
1.582,   9.044e-3
1.583,   9.069e-3
1.584,   9.115e-3
1.585,   9.154e-3
1.586,   9.208e-3
1.587,   9.309e-3
1.588,   9.431e-3
1.589,   9.462e-3
1.590,   9.743e-3
1.591,   1.006e-2
1.592,   1.006e-2
1.593,   1.006e-2
1.594,   1.006e-2
1.595,   1.006e-2
1.596,   1.006e-2
1.597,   1.006e-2