File: Experimental Records, Raw Data, and Supplementary Notes and Figures/batch3/final400/B3_BEST_400_#7_Full-209mV.txt
Feb. 21, 2023   15:26:22
Linear Sweep Voltammetry
File: d:\current work\al_oer\electrochemical test data\batch 3\400\B3_BEST_400_#7_Full-209mV.txt
Data Source:  Experiment
Instrument Model:  CHI660E
Header:
Note:

Init E (V) = 1.098

Final E (V) = 1.601

Scan Rate (V/s) = 0.010
Sample Interval (V) = 0.001
Quiet Time (sec) = 2
Sensitivity (A/V) = 0.001
Comp R (ohm) = 5.0

Results:

Channel 1:
Ep = 1.280V
ip = 9.946e-3A
Ah = 4.536e-2C

Potential/V, Current/A
1.098,   1.959e-4
1.099,   2.151e-4
1.100,   2.053e-4
1.101,   1.942e-4
1.102,   1.852e-4
1.103,   1.771e-4
1.104,   1.699e-4
1.105,   1.644e-4
1.106,   1.590e-4
1.107,   1.539e-4
1.108,   1.499e-4
1.109,   1.459e-4
1.110,   1.429e-4
1.111,   1.399e-4
1.112,   1.371e-4
1.113,   1.348e-4
1.114,   1.323e-4
1.115,   1.305e-4
1.116,   1.288e-4
1.117,   1.268e-4
1.118,   1.257e-4
1.119,   1.246e-4
1.120,   1.226e-4
1.121,   1.217e-4
1.122,   1.202e-4
1.123,   1.192e-4
1.124,   1.184e-4
1.125,   1.173e-4
1.126,   1.166e-4
1.127,   1.159e-4
1.128,   1.149e-4
1.129,   1.146e-4
1.130,   1.134e-4
1.131,   1.133e-4
1.132,   1.127e-4
1.133,   1.118e-4
1.134,   1.117e-4
1.135,   1.113e-4
1.136,   1.106e-4
1.137,   1.104e-4
1.138,   1.100e-4
1.139,   1.097e-4
1.140,   1.094e-4
1.141,   1.089e-4
1.142,   1.089e-4
1.143,   1.087e-4
1.144,   1.085e-4
1.145,   1.085e-4
1.146,   1.077e-4
1.147,   1.076e-4
1.148,   1.079e-4
1.149,   1.072e-4
1.150,   1.074e-4
1.151,   1.072e-4
1.152,   1.070e-4
1.153,   1.073e-4
1.154,   1.066e-4
1.155,   1.068e-4
1.156,   1.068e-4
1.157,   1.068e-4
1.158,   1.068e-4
1.159,   1.064e-4
1.160,   1.065e-4
1.161,   1.067e-4
1.162,   1.062e-4
1.163,   1.066e-4
1.164,   1.067e-4
1.165,   1.062e-4
1.166,   1.066e-4
1.167,   1.065e-4
1.168,   1.064e-4
1.169,   1.068e-4
1.170,   1.067e-4
1.171,   1.067e-4
1.172,   1.069e-4
1.173,   1.066e-4
1.174,   1.069e-4
1.175,   1.066e-4
1.176,   1.069e-4
1.177,   1.072e-4
1.178,   1.067e-4
1.179,   1.070e-4
1.180,   1.072e-4
1.181,   1.070e-4
1.182,   1.074e-4
1.183,   1.076e-4
1.184,   1.071e-4
1.185,   1.077e-4
1.186,   1.073e-4
1.187,   1.074e-4
1.188,   1.079e-4
1.189,   1.078e-4
1.190,   1.079e-4
1.191,   1.078e-4
1.192,   1.077e-4
1.193,   1.082e-4
1.194,   1.079e-4
1.195,   1.084e-4
1.196,   1.087e-4
1.197,   1.081e-4
1.198,   1.087e-4
1.199,   1.086e-4
1.200,   1.082e-4
1.201,   1.089e-4
1.202,   1.086e-4
1.203,   1.086e-4
1.204,   1.089e-4
1.205,   1.089e-4
1.206,   1.089e-4
1.207,   1.090e-4
1.208,   1.092e-4
1.209,   1.095e-4
1.210,   1.089e-4
1.211,   1.093e-4
1.212,   1.094e-4
1.213,   1.091e-4
1.214,   1.098e-4
1.215,   1.095e-4
1.216,   1.094e-4
1.217,   1.098e-4
1.218,   1.094e-4
1.219,   1.098e-4
1.220,   1.099e-4
1.221,   1.096e-4
1.222,   1.100e-4
1.223,   1.098e-4
1.224,   1.099e-4
1.225,   1.102e-4
1.226,   1.096e-4
1.227,   1.100e-4
1.228,   1.104e-4
1.229,   1.097e-4
1.230,   1.102e-4
1.231,   1.103e-4
1.232,   1.097e-4
1.233,   1.104e-4
1.234,   1.104e-4
1.235,   1.102e-4
1.236,   1.104e-4
1.237,   1.102e-4
1.238,   1.102e-4
1.239,   1.103e-4
1.240,   1.102e-4
1.241,   1.107e-4
1.242,   1.101e-4
1.243,   1.104e-4
1.244,   1.107e-4
1.245,   1.103e-4
1.246,   1.107e-4
1.247,   1.106e-4
1.248,   1.103e-4
1.249,   1.107e-4
1.250,   1.105e-4
1.251,   1.105e-4
1.252,   1.105e-4
1.253,   1.105e-4
1.254,   1.106e-4
1.255,   1.106e-4
1.256,   1.104e-4
1.257,   1.107e-4
1.258,   1.102e-4
1.259,   1.106e-4
1.260,   1.110e-4
1.261,   1.104e-4
1.262,   1.108e-4
1.263,   1.106e-4
1.264,   1.104e-4
1.265,   1.111e-4
1.266,   1.106e-4
1.267,   1.106e-4
1.268,   1.109e-4
1.269,   1.104e-4
1.270,   1.110e-4
1.271,   1.106e-4
1.272,   1.111e-4
1.273,   1.111e-4
1.274,   1.106e-4
1.275,   1.108e-4
1.276,   1.110e-4
1.277,   1.107e-4
1.278,   1.110e-4
1.279,   1.112e-4
1.280,   1.108e-4
1.281,   1.113e-4
1.282,   1.108e-4
1.283,   1.109e-4
1.284,   1.112e-4
1.285,   1.114e-4
1.286,   1.114e-4
1.287,   1.112e-4
1.288,   1.112e-4
1.289,   1.116e-4
1.290,   1.113e-4
1.291,   1.114e-4
1.292,   1.119e-4
1.293,   1.113e-4
1.294,   1.118e-4
1.295,   1.119e-4
1.296,   1.116e-4
1.297,   1.122e-4
1.298,   1.120e-4
1.299,   1.121e-4
1.300,   1.122e-4
1.301,   1.120e-4
1.302,   1.125e-4
1.303,   1.123e-4
1.304,   1.125e-4
1.305,   1.130e-4
1.306,   1.126e-4
1.307,   1.129e-4
1.308,   1.132e-4
1.309,   1.127e-4
1.310,   1.135e-4
1.311,   1.136e-4
1.312,   1.133e-4
1.313,   1.139e-4
1.314,   1.134e-4
1.315,   1.140e-4
1.316,   1.142e-4
1.317,   1.140e-4
1.318,   1.145e-4
1.319,   1.146e-4
1.320,   1.144e-4
1.321,   1.150e-4
1.322,   1.147e-4
1.323,   1.158e-4
1.324,   1.162e-4
1.325,   1.154e-4
1.326,   1.159e-4
1.327,   1.161e-4
1.328,   1.158e-4
1.329,   1.166e-4
1.330,   1.164e-4
1.331,   1.167e-4
1.332,   1.171e-4
1.333,   1.169e-4
1.334,   1.177e-4
1.335,   1.175e-4
1.336,   1.180e-4
1.337,   1.187e-4
1.338,   1.180e-4
1.339,   1.187e-4
1.340,   1.193e-4
1.341,   1.187e-4
1.342,   1.198e-4
1.343,   1.201e-4
1.344,   1.199e-4
1.345,   1.207e-4
1.346,   1.208e-4
1.347,   1.211e-4
1.348,   1.218e-4
1.349,   1.220e-4
1.350,   1.226e-4
1.351,   1.228e-4
1.352,   1.233e-4
1.353,   1.242e-4
1.354,   1.244e-4
1.355,   1.252e-4
1.356,   1.258e-4
1.357,   1.262e-4
1.358,   1.274e-4
1.359,   1.278e-4
1.360,   1.281e-4
1.361,   1.293e-4
1.362,   1.304e-4
1.363,   1.311e-4
1.364,   1.321e-4
1.365,   1.328e-4
1.366,   1.344e-4
1.367,   1.354e-4
1.368,   1.367e-4
1.369,   1.383e-4
1.370,   1.391e-4
1.371,   1.412e-4
1.372,   1.429e-4
1.373,   1.440e-4
1.374,   1.467e-4
1.375,   1.486e-4
1.376,   1.505e-4
1.377,   1.534e-4
1.378,   1.553e-4
1.379,   1.582e-4
1.380,   1.611e-4
1.381,   1.641e-4
1.382,   1.675e-4
1.383,   1.708e-4
1.384,   1.746e-4
1.385,   1.790e-4
1.386,   1.826e-4
1.387,   1.878e-4
1.388,   1.929e-4
1.389,   1.973e-4
1.390,   2.035e-4
1.391,   2.094e-4
1.392,   2.158e-4
1.393,   2.232e-4
1.394,   2.301e-4
1.395,   2.380e-4
1.396,   2.469e-4
1.397,   2.554e-4
1.398,   2.652e-4
1.399,   2.756e-4
1.400,   2.867e-4
1.401,   2.986e-4
1.402,   3.105e-4
1.403,   3.239e-4
1.404,   3.386e-4
1.405,   3.525e-4
1.406,   3.691e-4
1.407,   3.860e-4
1.408,   4.039e-4
1.409,   4.232e-4
1.410,   4.432e-4
1.411,   4.645e-4
1.412,   4.879e-4
1.413,   5.122e-4
1.414,   5.386e-4
1.415,   5.645e-4
1.416,   5.927e-4
1.417,   6.236e-4
1.418,   6.547e-4
1.419,   6.892e-4
1.420,   7.322e-4
1.421,   7.684e-4
1.422,   8.070e-4
1.423,   8.478e-4
1.424,   8.912e-4
1.425,   9.390e-4
1.426,   9.874e-4
1.427,   1.040e-3
1.428,   1.095e-3
1.429,   1.150e-3
1.430,   1.211e-3
1.431,   1.275e-3
1.432,   1.342e-3
1.433,   1.411e-3
1.434,   1.482e-3
1.435,   1.560e-3
1.436,   1.641e-3
1.437,   1.726e-3
1.438,   1.813e-3
1.439,   1.904e-3
1.440,   2.002e-3
1.441,   2.102e-3
1.442,   2.203e-3
1.443,   2.318e-3
1.444,   2.435e-3
1.445,   2.551e-3
1.446,   2.674e-3
1.447,   2.803e-3
1.448,   2.936e-3
1.449,   3.077e-3
1.450,   3.223e-3
1.451,   3.374e-3
1.452,   3.531e-3
1.453,   3.699e-3
1.454,   3.892e-3
1.455,   4.058e-3
1.456,   4.236e-3
1.457,   4.435e-3
1.458,   4.629e-3
1.459,   4.826e-3
1.460,   5.030e-3
1.461,   5.244e-3
1.462,   5.461e-3
1.463,   5.804e-3
1.464,   6.119e-3
1.465,   6.379e-3
1.466,   6.675e-3
1.467,   6.930e-3
1.468,   7.175e-3
1.469,   7.478e-3
1.470,   7.908e-3
1.471,   8.203e-3
1.472,   8.520e-3
1.473,   8.795e-3
1.474,   9.097e-3
1.475,   9.421e-3
1.476,   9.758e-3
1.477,   1.006e-2
1.478,   1.006e-2
1.479,   1.006e-2
1.480,   1.006e-2
1.481,   1.006e-2
1.482,   1.006e-2
1.483,   1.006e-2
1.484,   1.006e-2
1.485,   1.006e-2
1.486,   1.006e-2
1.487,   1.006e-2
1.488,   1.006e-2
1.489,   1.006e-2
1.490,   1.006e-2
1.491,   1.006e-2
1.492,   1.006e-2
1.493,   1.006e-2
1.494,   1.006e-2
1.495,   1.006e-2
1.496,   1.006e-2
1.497,   1.006e-2
1.498,   1.006e-2
1.499,   1.006e-2
1.500,   1.006e-2
1.501,   1.006e-2
1.502,   1.006e-2
1.503,   1.006e-2
1.504,   1.006e-2
1.505,   1.006e-2
1.506,   1.006e-2
1.507,   1.006e-2
1.508,   1.006e-2
1.509,   1.006e-2
1.510,   1.006e-2
1.511,   1.006e-2
1.512,   1.006e-2
1.513,   1.006e-2
1.514,   1.006e-2
1.515,   1.006e-2
1.516,   1.006e-2
1.517,   1.006e-2
1.518,   1.006e-2
1.519,   1.006e-2
1.520,   1.006e-2
1.521,   1.006e-2
1.522,   1.006e-2
1.523,   1.006e-2
1.524,   1.006e-2
1.525,   1.006e-2
1.526,   1.006e-2
1.527,   1.006e-2
1.528,   1.006e-2
1.529,   1.006e-2
1.530,   1.006e-2
1.531,   1.006e-2
1.532,   1.006e-2
1.533,   1.006e-2
1.534,   1.006e-2
1.535,   1.006e-2
1.536,   1.006e-2
1.537,   1.006e-2
1.538,   1.006e-2
1.539,   1.006e-2
1.540,   1.006e-2
1.541,   1.006e-2
1.542,   1.006e-2
1.543,   1.006e-2
1.544,   1.006e-2
1.545,   1.006e-2
1.546,   1.006e-2
1.547,   1.006e-2
1.548,   1.006e-2
1.549,   1.006e-2
1.550,   1.006e-2
1.551,   1.006e-2
1.552,   1.006e-2
1.553,   1.006e-2
1.554,   1.006e-2
1.555,   1.006e-2
1.556,   1.006e-2
1.557,   1.006e-2
1.558,   1.006e-2
1.559,   1.006e-2
1.560,   1.006e-2
1.561,   1.006e-2
1.562,   1.006e-2
1.563,   1.006e-2
1.564,   1.006e-2
1.565,   1.006e-2
1.566,   1.006e-2
1.567,   1.006e-2
1.568,   1.006e-2
1.569,   1.006e-2
1.570,   1.006e-2
1.571,   1.006e-2
1.572,   1.006e-2
1.573,   1.006e-2
1.574,   1.006e-2
1.575,   1.006e-2
1.576,   1.006e-2
1.577,   1.006e-2
1.578,   1.006e-2
1.579,   1.006e-2
1.580,   1.006e-2
1.581,   1.006e-2
1.582,   1.006e-2
1.583,   1.006e-2
1.584,   1.006e-2
1.585,   1.006e-2
1.586,   1.006e-2
1.587,   1.006e-2
1.588,   1.006e-2
1.589,   1.006e-2
1.590,   1.006e-2
1.591,   1.006e-2
1.592,   1.006e-2
1.593,   1.006e-2
1.594,   1.006e-2
1.595,   1.006e-2
1.596,   1.006e-2
1.597,   1.006e-2
1.598,   1.006e-2
1.599,   1.006e-2
1.600,   1.006e-2
1.601,   1.006e-2