File: Experimental Records, Raw Data, and Supplementary Notes and Figures/batch3/final400/B3_BEST_400_#3_Full-188mV.txt
Feb. 21, 2023   16:55:26
Linear Sweep Voltammetry
File: d:\current work\al_oer\electrochemical test data\batch 3\400\B3_BEST_400_#3_Full-188mV.txt
Data Source:  Experiment
Instrument Model:  CHI660E
Header:
Note:

Init E (V) = 1.098

Final E (V) = 1.451

Scan Rate (V/s) = 0.010
Sample Interval (V) = 0.001
Quiet Time (sec) = 2
Sensitivity (A/V) = 0.001
Comp R (ohm) = 5.4

Results:

Channel 1:

Potential/V, Current/A
1.098,   6.309e-4
1.099,   5.923e-4
1.100,   5.367e-4
1.101,   4.906e-4
1.102,   4.573e-4
1.103,   4.315e-4
1.104,   4.085e-4
1.105,   3.862e-4
1.106,   3.667e-4
1.107,   3.521e-4
1.108,   3.373e-4
1.109,   3.212e-4
1.110,   3.133e-4
1.111,   3.067e-4
1.112,   2.957e-4
1.113,   2.867e-4
1.114,   2.832e-4
1.115,   2.767e-4
1.116,   2.663e-4
1.117,   2.637e-4
1.118,   2.602e-4
1.119,   2.506e-4
1.120,   2.485e-4
1.121,   2.457e-4
1.122,   2.366e-4
1.123,   2.375e-4
1.124,   2.327e-4
1.125,   2.268e-4
1.126,   2.290e-4
1.127,   2.208e-4
1.128,   2.205e-4
1.129,   2.194e-4
1.130,   2.115e-4
1.131,   2.158e-4
1.132,   2.077e-4
1.133,   2.085e-4
1.134,   2.058e-4
1.135,   2.018e-4
1.136,   2.051e-4
1.137,   1.977e-4
1.138,   2.039e-4
1.139,   1.974e-4
1.140,   2.012e-4
1.141,   1.955e-4
1.142,   1.955e-4
1.143,   1.917e-4
1.144,   1.892e-4
1.145,   1.894e-4
1.146,   1.884e-4
1.147,   1.916e-4
1.148,   1.916e-4
1.149,   1.880e-4
1.150,   1.874e-4
1.151,   1.793e-4
1.152,   1.873e-4
1.153,   1.834e-4
1.154,   1.921e-4
1.155,   1.796e-4
1.156,   1.807e-4
1.157,   1.810e-4
1.158,   1.833e-4
1.159,   1.900e-4
1.160,   1.724e-4
1.161,   1.807e-4
1.162,   1.846e-4
1.163,   1.788e-4
1.164,   1.826e-4
1.165,   1.737e-4
1.166,   1.824e-4
1.167,   1.863e-4
1.168,   1.683e-4
1.169,   1.809e-4
1.170,   1.897e-4
1.171,   1.678e-4
1.172,   1.766e-4
1.173,   1.916e-4
1.174,   1.699e-4
1.175,   1.731e-4
1.176,   1.904e-4
1.177,   1.739e-4
1.178,   1.727e-4
1.179,   1.821e-4
1.180,   1.780e-4
1.181,   1.840e-4
1.182,   1.694e-4
1.183,   1.752e-4
1.184,   1.913e-4
1.185,   1.718e-4
1.186,   1.790e-4
1.187,   1.714e-4
1.188,   1.837e-4
1.189,   1.856e-4
1.190,   1.701e-4
1.191,   1.801e-4
1.192,   1.691e-4
1.193,   1.911e-4
1.194,   1.748e-4
1.195,   1.864e-4
1.196,   1.692e-4
1.197,   1.806e-4
1.198,   1.713e-4
1.199,   1.864e-4
1.200,   1.775e-4
1.201,   1.901e-4
1.202,   1.748e-4
1.203,   1.839e-4
1.204,   1.669e-4
1.205,   1.832e-4
1.206,   1.681e-4
1.207,   1.880e-4
1.208,   1.755e-4
1.209,   1.894e-4
1.210,   1.799e-4
1.211,   1.814e-4
1.212,   1.869e-4
1.213,   1.730e-4
1.214,   1.889e-4
1.215,   1.715e-4
1.216,   1.837e-4
1.217,   1.798e-4
1.218,   1.737e-4
1.219,   1.885e-4
1.220,   1.728e-4
1.221,   1.825e-4
1.222,   1.837e-4
1.223,   1.727e-4
1.224,   1.878e-4
1.225,   1.795e-4
1.226,   1.749e-4
1.227,   1.903e-4
1.228,   1.786e-4
1.229,   1.772e-4
1.230,   1.909e-4
1.231,   1.779e-4
1.232,   1.771e-4
1.233,   1.895e-4
1.234,   1.773e-4
1.235,   1.747e-4
1.236,   1.866e-4
1.237,   1.778e-4
1.238,   1.713e-4
1.239,   1.815e-4
1.240,   1.826e-4
1.241,   1.740e-4
1.242,   1.788e-4
1.243,   1.903e-4
1.244,   1.839e-4
1.245,   1.774e-4
1.246,   1.866e-4
1.247,   1.881e-4
1.248,   1.747e-4
1.249,   1.702e-4
1.250,   1.792e-4
1.251,   1.842e-4
1.252,   1.804e-4
1.253,   1.793e-4
1.254,   1.859e-4
1.255,   1.877e-4
1.256,   1.770e-4
1.257,   1.696e-4
1.258,   1.728e-4
1.259,   1.875e-4
1.260,   1.915e-4
1.261,   1.825e-4
1.262,   1.734e-4
1.263,   1.708e-4
1.264,   1.811e-4
1.265,   1.887e-4
1.266,   1.854e-4
1.267,   1.781e-4
1.268,   1.707e-4
1.269,   1.755e-4
1.270,   1.881e-4
1.271,   1.890e-4
1.272,   1.800e-4
1.273,   1.728e-4
1.274,   1.723e-4
1.275,   1.822e-4
1.276,   1.885e-4
1.277,   1.823e-4
1.278,   1.770e-4
1.279,   1.806e-4
1.280,   1.836e-4
1.281,   1.780e-4
1.282,   1.704e-4
1.283,   1.779e-4
1.284,   1.886e-4
1.285,   1.853e-4
1.286,   1.783e-4
1.287,   1.828e-4
1.288,   1.860e-4
1.289,   1.786e-4
1.290,   1.753e-4
1.291,   1.833e-4
1.292,   1.802e-4
1.293,   1.731e-4
1.294,   1.824e-4
1.295,   1.849e-4
1.296,   1.775e-4
1.297,   1.819e-4
1.298,   1.893e-4
1.299,   1.808e-4
1.300,   1.794e-4
1.301,   1.884e-4
1.302,   1.827e-4
1.303,   1.782e-4
1.304,   1.889e-4
1.305,   1.814e-4
1.306,   1.789e-4
1.307,   1.902e-4
1.308,   1.784e-4
1.309,   1.838e-4
1.310,   1.872e-4
1.311,   1.788e-4
1.312,   1.882e-4
1.313,   1.822e-4
1.314,   1.848e-4
1.315,   1.871e-4
1.316,   1.822e-4
1.317,   1.924e-4
1.318,   1.850e-4
1.319,   1.949e-4
1.320,   1.880e-4
1.321,   1.904e-4
1.322,   1.863e-4
1.323,   1.841e-4
1.324,   1.887e-4
1.325,   1.841e-4
1.326,   1.920e-4
1.327,   1.912e-4
1.328,   1.990e-4
1.329,   1.935e-4
1.330,   1.896e-4
1.331,   1.855e-4
1.332,   1.900e-4
1.333,   1.961e-4
1.334,   2.008e-4
1.335,   2.000e-4
1.336,   1.860e-4
1.337,   1.939e-4
1.338,   1.977e-4
1.339,   2.066e-4
1.340,   1.988e-4
1.341,   1.873e-4
1.342,   2.030e-4
1.343,   2.100e-4
1.344,   2.003e-4
1.345,   1.952e-4
1.346,   2.066e-4
1.347,   2.147e-4
1.348,   1.981e-4
1.349,   2.035e-4
1.350,   2.205e-4
1.351,   2.049e-4
1.352,   2.052e-4
1.353,   2.250e-4
1.354,   2.065e-4
1.355,   2.151e-4
1.356,   2.293e-4
1.357,   2.052e-4
1.358,   2.311e-4
1.359,   2.252e-4
1.360,   2.177e-4
1.361,   2.413e-4
1.362,   2.159e-4
1.363,   2.487e-4
1.364,   2.270e-4
1.365,   2.464e-4
1.366,   2.391e-4
1.367,   2.469e-4
1.368,   2.503e-4
1.369,   2.540e-4
1.370,   2.595e-4
1.371,   2.641e-4
1.372,   2.653e-4
1.373,   2.786e-4
1.374,   2.690e-4
1.375,   2.985e-4
1.376,   2.743e-4
1.377,   3.142e-4
1.378,   2.927e-4
1.379,   3.174e-4
1.380,   3.278e-4
1.381,   3.173e-4
1.382,   3.575e-4
1.383,   3.434e-4
1.384,   3.570e-4
1.385,   3.911e-4
1.386,   3.770e-4
1.387,   4.007e-4
1.388,   4.336e-4
1.389,   4.253e-4
1.390,   4.441e-4
1.391,   4.847e-4
1.392,   4.922e-4
1.393,   5.002e-4
1.394,   5.392e-4
1.395,   5.747e-4
1.396,   5.855e-4
1.397,   6.049e-4
1.398,   6.483e-4
1.399,   6.919e-4
1.400,   7.228e-4
1.401,   7.474e-4
1.402,   7.842e-4
1.403,   8.342e-4
1.404,   8.896e-4
1.405,   9.383e-4
1.406,   9.818e-4
1.407,   1.027e-3
1.408,   1.083e-3
1.409,   1.150e-3
1.410,   1.220e-3
1.411,   1.293e-3
1.412,   1.366e-3
1.413,   1.438e-3
1.414,   1.514e-3
1.415,   1.594e-3
1.416,   1.684e-3
1.417,   1.782e-3
1.418,   1.884e-3
1.419,   1.991e-3
1.420,   2.102e-3
1.421,   2.215e-3
1.422,   2.338e-3
1.423,   2.474e-3
1.424,   2.632e-3
1.425,   2.794e-3
1.426,   2.967e-3
1.427,   3.149e-3
1.428,   3.336e-3
1.429,   3.537e-3
1.430,   3.741e-3
1.431,   3.951e-3
1.432,   4.161e-3
1.433,   4.388e-3
1.434,   4.648e-3
1.435,   4.912e-3
1.436,   5.152e-3
1.437,   5.439e-3
1.438,   5.709e-3
1.439,   6.026e-3
1.440,   6.458e-3
1.441,   6.809e-3
1.442,   7.249e-3
1.443,   7.597e-3
1.444,   7.968e-3
1.445,   8.359e-3
1.446,   8.707e-3
1.447,   9.054e-3
1.448,   9.420e-3
1.449,   9.758e-3
1.450,   1.004e-2
1.451,   1.006e-2