File: Experimental Records, Raw Data, and Supplementary Notes and Figures/batch3/final400/B3_BEST_400_#2_High_Quality(#15)-219mV.txt
Feb. 21, 2023   16:35:47
Linear Sweep Voltammetry
File: d:\current work\al_oer\electrochemical test data\batch 3\400\B3_BEST_400_#2_High_Quality(#15)-219mV.txt
Data Source:  Experiment
Instrument Model:  CHI660E
Header:
Note:

Init E (V) = 1.099

Final E (V) = 1.496

Scan Rate (V/s) = 0.010
Sample Interval (V) = 0.001
Quiet Time (sec) = 2
Sensitivity (A/V) = 0.001
Comp R (ohm) = 5.9

Results:

Channel 1:

Potential/V, Current/A
1.099,   2.151e-4
1.100,   2.085e-4
1.101,   1.952e-4
1.102,   1.818e-4
1.103,   1.702e-4
1.104,   1.599e-4
1.105,   1.508e-4
1.106,   1.431e-4
1.107,   1.362e-4
1.108,   1.301e-4
1.109,   1.246e-4
1.110,   1.197e-4
1.111,   1.155e-4
1.112,   1.114e-4
1.113,   1.079e-4
1.114,   1.047e-4
1.115,   1.016e-4
1.116,   9.905e-5
1.117,   9.658e-5
1.118,   9.420e-5
1.119,   9.240e-5
1.120,   9.059e-5
1.121,   8.864e-5
1.122,   8.703e-5
1.123,   8.543e-5
1.124,   8.401e-5
1.125,   8.268e-5
1.126,   8.142e-5
1.127,   8.036e-5
1.128,   7.919e-5
1.129,   7.814e-5
1.130,   7.730e-5
1.131,   7.629e-5
1.132,   7.557e-5
1.133,   7.478e-5
1.134,   7.387e-5
1.135,   7.330e-5
1.136,   7.255e-5
1.137,   7.194e-5
1.138,   7.144e-5
1.139,   7.085e-5
1.140,   7.039e-5
1.141,   6.986e-5
1.142,   6.938e-5
1.143,   6.900e-5
1.144,   6.854e-5
1.145,   6.820e-5
1.146,   6.793e-5
1.147,   6.742e-5
1.148,   6.717e-5
1.149,   6.691e-5
1.150,   6.648e-5
1.151,   6.636e-5
1.152,   6.608e-5
1.153,   6.571e-5
1.154,   6.561e-5
1.155,   6.522e-5
1.156,   6.509e-5
1.157,   6.497e-5
1.158,   6.480e-5
1.159,   6.459e-5
1.160,   6.427e-5
1.161,   6.415e-5
1.162,   6.409e-5
1.163,   6.378e-5
1.164,   6.379e-5
1.165,   6.364e-5
1.166,   6.346e-5
1.167,   6.348e-5
1.168,   6.327e-5
1.169,   6.308e-5
1.170,   6.312e-5
1.171,   6.307e-5
1.172,   6.297e-5
1.173,   6.285e-5
1.174,   6.273e-5
1.175,   6.269e-5
1.176,   6.255e-5
1.177,   6.255e-5
1.178,   6.250e-5
1.179,   6.230e-5
1.180,   6.234e-5
1.181,   6.233e-5
1.182,   6.219e-5
1.183,   6.224e-5
1.184,   6.230e-5
1.185,   6.212e-5
1.186,   6.218e-5
1.187,   6.199e-5
1.188,   6.197e-5
1.189,   6.202e-5
1.190,   6.200e-5
1.191,   6.200e-5
1.192,   6.189e-5
1.193,   6.186e-5
1.194,   6.200e-5
1.195,   6.174e-5
1.196,   6.191e-5
1.197,   6.201e-5
1.198,   6.177e-5
1.199,   6.182e-5
1.200,   6.176e-5
1.201,   6.171e-5
1.202,   6.183e-5
1.203,   6.170e-5
1.204,   6.181e-5
1.205,   6.176e-5
1.206,   6.170e-5
1.207,   6.177e-5
1.208,   6.169e-5
1.209,   6.183e-5
1.210,   6.189e-5
1.211,   6.173e-5
1.212,   6.179e-5
1.213,   6.181e-5
1.214,   6.168e-5
1.215,   6.186e-5
1.216,   6.178e-5
1.217,   6.176e-5
1.218,   6.186e-5
1.219,   6.173e-5
1.220,   6.185e-5
1.221,   6.183e-5
1.222,   6.181e-5
1.223,   6.188e-5
1.224,   6.183e-5
1.225,   6.182e-5
1.226,   6.197e-5
1.227,   6.181e-5
1.228,   6.188e-5
1.229,   6.198e-5
1.230,   6.179e-5
1.231,   6.189e-5
1.232,   6.195e-5
1.233,   6.187e-5
1.234,   6.199e-5
1.235,   6.204e-5
1.236,   6.201e-5
1.237,   6.195e-5
1.238,   6.194e-5
1.239,   6.206e-5
1.240,   6.196e-5
1.241,   6.208e-5
1.242,   6.213e-5
1.243,   6.201e-5
1.244,   6.214e-5
1.245,   6.218e-5
1.246,   6.206e-5
1.247,   6.230e-5
1.248,   6.230e-5
1.249,   6.223e-5
1.250,   6.229e-5
1.251,   6.219e-5
1.252,   6.227e-5
1.253,   6.229e-5
1.254,   6.239e-5
1.255,   6.246e-5
1.256,   6.229e-5
1.257,   6.241e-5
1.258,   6.252e-5
1.259,   6.244e-5
1.260,   6.257e-5
1.261,   6.271e-5
1.262,   6.250e-5
1.263,   6.267e-5
1.264,   6.266e-5
1.265,   6.261e-5
1.266,   6.281e-5
1.267,   6.282e-5
1.268,   6.277e-5
1.269,   6.284e-5
1.270,   6.277e-5
1.271,   6.286e-5
1.272,   6.282e-5
1.273,   6.304e-5
1.274,   6.317e-5
1.275,   6.296e-5
1.276,   6.303e-5
1.277,   6.319e-5
1.278,   6.299e-5
1.279,   6.324e-5
1.280,   6.326e-5
1.281,   6.323e-5
1.282,   6.344e-5
1.283,   6.335e-5
1.284,   6.338e-5
1.285,   6.354e-5
1.286,   6.362e-5
1.287,   6.368e-5
1.288,   6.350e-5
1.289,   6.362e-5
1.290,   6.381e-5
1.291,   6.351e-5
1.292,   6.387e-5
1.293,   6.407e-5
1.294,   6.383e-5
1.295,   6.401e-5
1.296,   6.404e-5
1.297,   6.403e-5
1.298,   6.424e-5
1.299,   6.425e-5
1.300,   6.427e-5
1.301,   6.440e-5
1.302,   6.437e-5
1.303,   6.452e-5
1.304,   6.449e-5
1.305,   6.464e-5
1.306,   6.477e-5
1.307,   6.471e-5
1.308,   6.486e-5
1.309,   6.501e-5
1.310,   6.489e-5
1.311,   6.514e-5
1.312,   6.525e-5
1.313,   6.510e-5
1.314,   6.537e-5
1.315,   6.539e-5
1.316,   6.551e-5
1.317,   6.566e-5
1.318,   6.560e-5
1.319,   6.579e-5
1.320,   6.586e-5
1.321,   6.593e-5
1.322,   6.617e-5
1.323,   6.608e-5
1.324,   6.657e-5
1.325,   6.683e-5
1.326,   6.656e-5
1.327,   6.680e-5
1.328,   6.688e-5
1.329,   6.690e-5
1.330,   6.716e-5
1.331,   6.726e-5
1.332,   6.744e-5
1.333,   6.769e-5
1.334,   6.765e-5
1.335,   6.796e-5
1.336,   6.795e-5
1.337,   6.822e-5
1.338,   6.846e-5
1.339,   6.846e-5
1.340,   6.875e-5
1.341,   6.898e-5
1.342,   6.898e-5
1.343,   6.935e-5
1.344,   6.961e-5
1.345,   6.969e-5
1.346,   6.999e-5
1.347,   7.011e-5
1.348,   7.037e-5
1.349,   7.063e-5
1.350,   7.090e-5
1.351,   7.125e-5
1.352,   7.137e-5
1.353,   7.155e-5
1.354,   7.205e-5
1.355,   7.207e-5
1.356,   7.261e-5
1.357,   7.305e-5
1.358,   7.316e-5
1.359,   7.371e-5
1.360,   7.412e-5
1.361,   7.448e-5
1.362,   7.507e-5
1.363,   7.554e-5
1.364,   7.594e-5
1.365,   7.660e-5
1.366,   7.697e-5
1.367,   7.758e-5
1.368,   7.823e-5
1.369,   7.891e-5
1.370,   7.971e-5
1.371,   8.065e-5
1.372,   8.155e-5
1.373,   8.251e-5
1.374,   8.328e-5
1.375,   8.451e-5
1.376,   8.565e-5
1.377,   8.658e-5
1.378,   8.796e-5
1.379,   8.888e-5
1.380,   9.035e-5
1.381,   9.195e-5
1.382,   9.351e-5
1.383,   9.559e-5
1.384,   9.750e-5
1.385,   9.969e-5
1.386,   1.022e-4
1.387,   1.046e-4
1.388,   1.075e-4
1.389,   1.106e-4
1.390,   1.136e-4
1.391,   1.172e-4
1.392,   1.209e-4
1.393,   1.250e-4
1.394,   1.296e-4
1.395,   1.342e-4
1.396,   1.394e-4
1.397,   1.449e-4
1.398,   1.508e-4
1.399,   1.576e-4
1.400,   1.643e-4
1.401,   1.718e-4
1.402,   1.799e-4
1.403,   1.882e-4
1.404,   1.972e-4
1.405,   2.070e-4
1.406,   2.172e-4
1.407,   2.285e-4
1.408,   2.404e-4
1.409,   2.531e-4
1.410,   2.669e-4
1.411,   2.809e-4
1.412,   2.961e-4
1.413,   3.123e-4
1.414,   3.294e-4
1.415,   3.475e-4
1.416,   3.663e-4
1.417,   3.864e-4
1.418,   4.080e-4
1.419,   4.301e-4
1.420,   4.540e-4
1.421,   4.790e-4
1.422,   5.050e-4
1.423,   5.324e-4
1.424,   5.612e-4
1.425,   5.914e-4
1.426,   6.233e-4
1.427,   6.564e-4
1.428,   6.911e-4
1.429,   7.274e-4
1.430,   7.652e-4
1.431,   8.049e-4
1.432,   8.460e-4
1.433,   8.890e-4
1.434,   9.341e-4
1.435,   9.806e-4
1.436,   1.029e-3
1.437,   1.080e-3
1.438,   1.132e-3
1.439,   1.188e-3
1.440,   1.245e-3
1.441,   1.304e-3
1.442,   1.366e-3
1.443,   1.430e-3
1.444,   1.497e-3
1.445,   1.567e-3
1.446,   1.639e-3
1.447,   1.714e-3
1.448,   1.792e-3
1.449,   1.873e-3
1.450,   1.957e-3
1.451,   2.044e-3
1.452,   2.133e-3
1.453,   2.228e-3
1.454,   2.325e-3
1.455,   2.427e-3
1.456,   2.532e-3
1.457,   2.642e-3
1.458,   2.758e-3
1.459,   2.877e-3
1.460,   3.000e-3
1.461,   3.128e-3
1.462,   3.263e-3
1.463,   3.405e-3
1.464,   3.545e-3
1.465,   3.691e-3
1.466,   3.844e-3
1.467,   4.004e-3
1.468,   4.164e-3
1.469,   4.325e-3
1.470,   4.487e-3
1.471,   4.660e-3
1.472,   4.832e-3
1.473,   5.015e-3
1.474,   5.208e-3
1.475,   5.398e-3
1.476,   5.594e-3
1.477,   5.789e-3
1.478,   5.993e-3
1.479,   6.209e-3
1.480,   6.428e-3
1.481,   6.658e-3
1.482,   6.867e-3
1.483,   7.082e-3
1.484,   7.310e-3
1.485,   7.569e-3
1.486,   7.832e-3
1.487,   8.146e-3
1.488,   8.532e-3
1.489,   8.784e-3
1.490,   9.011e-3
1.491,   9.239e-3
1.492,   9.583e-3
1.493,   9.879e-3
1.494,   1.005e-2
1.495,   1.006e-2
1.496,   1.006e-2