File: Experimental Records, Raw Data, and Supplementary Notes and Figures/batch3/final400/B3_BEST_400_#2_Full-208mV.txt
Feb. 21, 2023   14:40:08
Linear Sweep Voltammetry
File: d:\current work\al_oer\electrochemical test data\batch 3\400\B3_BEST_400_#2_Full-208mV.txt
Data Source:  Experiment
Instrument Model:  CHI660E
Header:
Note:

Init E (V) = 1.100

Final E (V) = 1.581

Scan Rate (V/s) = 0.010
Sample Interval (V) = 0.001
Quiet Time (sec) = 2
Sensitivity (A/V) = 0.001
Comp R (ohm) = 5.6

Results:

Channel 1:
Ep = 1.278V
ip = 9.989e-3A
Ah = 4.718e-2C

Potential/V, Current/A
1.100,   2.524e-4
1.101,   2.439e-4
1.102,   2.262e-4
1.103,   2.097e-4
1.104,   1.957e-4
1.105,   1.835e-4
1.106,   1.726e-4
1.107,   1.634e-4
1.108,   1.550e-4
1.109,   1.474e-4
1.110,   1.410e-4
1.111,   1.349e-4
1.112,   1.296e-4
1.113,   1.248e-4
1.114,   1.204e-4
1.115,   1.166e-4
1.116,   1.127e-4
1.117,   1.095e-4
1.118,   1.067e-4
1.119,   1.036e-4
1.120,   1.014e-4
1.121,   9.918e-5
1.122,   9.671e-5
1.123,   9.483e-5
1.124,   9.286e-5
1.125,   9.113e-5
1.126,   8.966e-5
1.127,   8.801e-5
1.128,   8.673e-5
1.129,   8.535e-5
1.130,   8.410e-5
1.131,   8.309e-5
1.132,   8.182e-5
1.133,   8.097e-5
1.134,   8.011e-5
1.135,   7.897e-5
1.136,   7.823e-5
1.137,   7.745e-5
1.138,   7.647e-5
1.139,   7.598e-5
1.140,   7.522e-5
1.141,   7.459e-5
1.142,   7.406e-5
1.143,   7.329e-5
1.144,   7.284e-5
1.145,   7.228e-5
1.146,   7.187e-5
1.147,   7.146e-5
1.148,   7.087e-5
1.149,   7.045e-5
1.150,   7.018e-5
1.151,   6.942e-5
1.152,   6.932e-5
1.153,   6.901e-5
1.154,   6.853e-5
1.155,   6.839e-5
1.156,   6.798e-5
1.157,   6.765e-5
1.158,   6.749e-5
1.159,   6.728e-5
1.160,   6.703e-5
1.161,   6.669e-5
1.162,   6.643e-5
1.163,   6.635e-5
1.164,   6.593e-5
1.165,   6.590e-5
1.166,   6.573e-5
1.167,   6.530e-5
1.168,   6.535e-5
1.169,   6.512e-5
1.170,   6.482e-5
1.171,   6.486e-5
1.172,   6.466e-5
1.173,   6.451e-5
1.174,   6.442e-5
1.175,   6.415e-5
1.176,   6.420e-5
1.177,   6.402e-5
1.178,   6.382e-5
1.179,   6.394e-5
1.180,   6.355e-5
1.181,   6.349e-5
1.182,   6.356e-5
1.183,   6.323e-5
1.184,   6.334e-5
1.185,   6.326e-5
1.186,   6.301e-5
1.187,   6.311e-5
1.188,   6.293e-5
1.189,   6.285e-5
1.190,   6.293e-5
1.191,   6.274e-5
1.192,   6.277e-5
1.193,   6.263e-5
1.194,   6.253e-5
1.195,   6.267e-5
1.196,   6.246e-5
1.197,   6.252e-5
1.198,   6.255e-5
1.199,   6.225e-5
1.200,   6.243e-5
1.201,   6.232e-5
1.202,   6.222e-5
1.203,   6.233e-5
1.204,   6.219e-5
1.205,   6.221e-5
1.206,   6.228e-5
1.207,   6.206e-5
1.208,   6.218e-5
1.209,   6.215e-5
1.210,   6.220e-5
1.211,   6.222e-5
1.212,   6.197e-5
1.213,   6.209e-5
1.214,   6.220e-5
1.215,   6.198e-5
1.216,   6.216e-5
1.217,   6.214e-5
1.218,   6.197e-5
1.219,   6.214e-5
1.220,   6.201e-5
1.221,   6.207e-5
1.222,   6.216e-5
1.223,   6.200e-5
1.224,   6.208e-5
1.225,   6.214e-5
1.226,   6.207e-5
1.227,   6.221e-5
1.228,   6.213e-5
1.229,   6.218e-5
1.230,   6.232e-5
1.231,   6.206e-5
1.232,   6.221e-5
1.233,   6.231e-5
1.234,   6.216e-5
1.235,   6.241e-5
1.236,   6.243e-5
1.237,   6.233e-5
1.238,   6.247e-5
1.239,   6.228e-5
1.240,   6.247e-5
1.241,   6.246e-5
1.242,   6.244e-5
1.243,   6.263e-5
1.244,   6.233e-5
1.245,   6.254e-5
1.246,   6.271e-5
1.247,   6.244e-5
1.248,   6.283e-5
1.249,   6.280e-5
1.250,   6.263e-5
1.251,   6.286e-5
1.252,   6.271e-5
1.253,   6.280e-5
1.254,   6.293e-5
1.255,   6.279e-5
1.256,   6.309e-5
1.257,   6.302e-5
1.258,   6.303e-5
1.259,   6.324e-5
1.260,   6.308e-5
1.261,   6.338e-5
1.262,   6.346e-5
1.263,   6.313e-5
1.264,   6.343e-5
1.265,   6.346e-5
1.266,   6.348e-5
1.267,   6.383e-5
1.268,   6.364e-5
1.269,   6.358e-5
1.270,   6.385e-5
1.271,   6.369e-5
1.272,   6.392e-5
1.273,   6.396e-5
1.274,   6.410e-5
1.275,   6.423e-5
1.276,   6.409e-5
1.277,   6.423e-5
1.278,   6.440e-5
1.279,   6.424e-5
1.280,   6.455e-5
1.281,   6.458e-5
1.282,   6.451e-5
1.283,   6.475e-5
1.284,   6.467e-5
1.285,   6.483e-5
1.286,   6.511e-5
1.287,   6.507e-5
1.288,   6.511e-5
1.289,   6.516e-5
1.290,   6.520e-5
1.291,   6.544e-5
1.292,   6.533e-5
1.293,   6.550e-5
1.294,   6.578e-5
1.295,   6.554e-5
1.296,   6.587e-5
1.297,   6.602e-5
1.298,   6.597e-5
1.299,   6.624e-5
1.300,   6.631e-5
1.301,   6.637e-5
1.302,   6.654e-5
1.303,   6.640e-5
1.304,   6.678e-5
1.305,   6.683e-5
1.306,   6.690e-5
1.307,   6.720e-5
1.308,   6.707e-5
1.309,   6.728e-5
1.310,   6.755e-5
1.311,   6.744e-5
1.312,   6.782e-5
1.313,   6.785e-5
1.314,   6.785e-5
1.315,   6.822e-5
1.316,   6.820e-5
1.317,   6.842e-5
1.318,   6.870e-5
1.319,   6.863e-5
1.320,   6.892e-5
1.321,   6.904e-5
1.322,   6.923e-5
1.323,   6.945e-5
1.324,   6.941e-5
1.325,   7.015e-5
1.326,   7.025e-5
1.327,   6.998e-5
1.328,   7.042e-5
1.329,   7.053e-5
1.330,   7.059e-5
1.331,   7.103e-5
1.332,   7.107e-5
1.333,   7.131e-5
1.334,   7.166e-5
1.335,   7.171e-5
1.336,   7.209e-5
1.337,   7.227e-5
1.338,   7.268e-5
1.339,   7.304e-5
1.340,   7.298e-5
1.341,   7.340e-5
1.342,   7.378e-5
1.343,   7.384e-5
1.344,   7.438e-5
1.345,   7.482e-5
1.346,   7.498e-5
1.347,   7.546e-5
1.348,   7.579e-5
1.349,   7.605e-5
1.350,   7.670e-5
1.351,   7.704e-5
1.352,   7.760e-5
1.353,   7.796e-5
1.354,   7.839e-5
1.355,   7.902e-5
1.356,   7.931e-5
1.357,   8.006e-5
1.358,   8.087e-5
1.359,   8.117e-5
1.360,   8.207e-5
1.361,   8.279e-5
1.362,   8.333e-5
1.363,   8.447e-5
1.364,   8.525e-5
1.365,   8.602e-5
1.366,   8.722e-5
1.367,   8.801e-5
1.368,   8.922e-5
1.369,   9.040e-5
1.370,   9.174e-5
1.371,   9.320e-5
1.372,   9.430e-5
1.373,   9.592e-5
1.374,   9.778e-5
1.375,   9.934e-5
1.376,   1.014e-4
1.377,   1.034e-4
1.378,   1.055e-4
1.379,   1.081e-4
1.380,   1.102e-4
1.381,   1.130e-4
1.382,   1.162e-4
1.383,   1.190e-4
1.384,   1.224e-4
1.385,   1.261e-4
1.386,   1.297e-4
1.387,   1.342e-4
1.388,   1.383e-4
1.389,   1.433e-4
1.390,   1.485e-4
1.391,   1.536e-4
1.392,   1.598e-4
1.393,   1.660e-4
1.394,   1.726e-4
1.395,   1.801e-4
1.396,   1.879e-4
1.397,   1.960e-4
1.398,   2.050e-4
1.399,   2.144e-4
1.400,   2.247e-4
1.401,   2.360e-4
1.402,   2.476e-4
1.403,   2.605e-4
1.404,   2.737e-4
1.405,   2.880e-4
1.406,   3.035e-4
1.407,   3.199e-4
1.408,   3.376e-4
1.409,   3.562e-4
1.410,   3.760e-4
1.411,   3.977e-4
1.412,   4.200e-4
1.413,   4.443e-4
1.414,   4.700e-4
1.415,   4.974e-4
1.416,   5.266e-4
1.417,   5.572e-4
1.418,   5.902e-4
1.419,   6.252e-4
1.420,   6.614e-4
1.421,   7.003e-4
1.422,   7.409e-4
1.423,   7.847e-4
1.424,   8.308e-4
1.425,   8.797e-4
1.426,   9.312e-4
1.427,   9.858e-4
1.428,   1.043e-3
1.429,   1.104e-3
1.430,   1.168e-3
1.431,   1.235e-3
1.432,   1.306e-3
1.433,   1.380e-3
1.434,   1.459e-3
1.435,   1.540e-3
1.436,   1.626e-3
1.437,   1.717e-3
1.438,   1.812e-3
1.439,   1.911e-3
1.440,   2.018e-3
1.441,   2.129e-3
1.442,   2.246e-3
1.443,   2.364e-3
1.444,   2.488e-3
1.445,   2.618e-3
1.446,   2.751e-3
1.447,   2.893e-3
1.448,   3.042e-3
1.449,   3.202e-3
1.450,   3.371e-3
1.451,   3.543e-3
1.452,   3.713e-3
1.453,   3.888e-3
1.454,   4.084e-3
1.455,   4.285e-3
1.456,   4.507e-3
1.457,   4.714e-3
1.458,   4.926e-3
1.459,   5.137e-3
1.460,   5.374e-3
1.461,   5.659e-3
1.462,   5.929e-3
1.463,   6.161e-3
1.464,   6.410e-3
1.465,   6.687e-3
1.466,   6.937e-3
1.467,   7.183e-3
1.468,   7.501e-3
1.469,   7.828e-3
1.470,   8.121e-3
1.471,   8.438e-3
1.472,   8.839e-3
1.473,   9.117e-3
1.474,   9.340e-3
1.475,   9.639e-3
1.476,   9.989e-3
1.477,   1.006e-2
1.478,   1.006e-2
1.479,   1.006e-2
1.480,   1.006e-2
1.481,   1.006e-2
1.482,   1.006e-2
1.483,   1.006e-2
1.484,   1.006e-2
1.485,   1.006e-2
1.486,   1.006e-2
1.487,   1.006e-2
1.488,   1.006e-2
1.489,   1.006e-2
1.490,   1.006e-2
1.491,   1.006e-2
1.492,   1.006e-2
1.493,   1.006e-2
1.494,   1.006e-2
1.495,   1.006e-2
1.496,   1.006e-2
1.497,   1.006e-2
1.498,   1.006e-2
1.499,   1.006e-2
1.500,   1.006e-2
1.501,   1.006e-2
1.502,   1.006e-2
1.503,   1.006e-2
1.504,   1.006e-2
1.505,   1.006e-2
1.506,   1.006e-2
1.507,   1.006e-2
1.508,   1.006e-2
1.509,   1.006e-2
1.510,   1.006e-2
1.511,   1.006e-2
1.512,   1.006e-2
1.513,   1.006e-2
1.514,   1.006e-2
1.515,   1.006e-2
1.516,   1.006e-2
1.517,   1.006e-2
1.518,   1.006e-2
1.519,   1.006e-2
1.520,   1.006e-2
1.521,   1.006e-2
1.522,   1.006e-2
1.523,   1.006e-2
1.524,   1.006e-2
1.525,   1.006e-2
1.526,   1.006e-2
1.527,   1.006e-2
1.528,   1.006e-2
1.529,   1.006e-2
1.530,   1.006e-2
1.531,   1.006e-2
1.532,   1.006e-2
1.533,   1.006e-2
1.534,   1.006e-2
1.535,   1.006e-2
1.536,   1.006e-2
1.537,   1.006e-2
1.538,   1.006e-2
1.539,   1.006e-2
1.540,   1.006e-2
1.541,   1.006e-2
1.542,   1.006e-2
1.543,   1.006e-2
1.544,   1.006e-2
1.545,   1.006e-2
1.546,   1.006e-2
1.547,   1.006e-2
1.548,   1.006e-2
1.549,   1.006e-2
1.550,   1.006e-2
1.551,   1.006e-2
1.552,   1.006e-2
1.553,   1.006e-2
1.554,   1.006e-2
1.555,   1.006e-2
1.556,   1.006e-2
1.557,   1.006e-2
1.558,   1.006e-2
1.559,   1.006e-2
1.560,   1.006e-2
1.561,   1.006e-2
1.562,   1.006e-2
1.563,   1.006e-2
1.564,   1.006e-2
1.565,   1.006e-2
1.566,   1.006e-2
1.567,   1.006e-2
1.568,   1.006e-2
1.569,   1.006e-2
1.570,   1.006e-2
1.571,   1.006e-2
1.572,   1.006e-2
1.573,   1.006e-2
1.574,   1.006e-2
1.575,   1.006e-2
1.576,   1.006e-2
1.577,   1.006e-2
1.578,   1.006e-2
1.579,   1.006e-2
1.580,   1.006e-2
1.581,   1.006e-2