File: Experimental Records, Raw Data, and Supplementary Notes and Figures/batch3/final400/B3_VARIANCE_400_#3_High_Quality(#24)-234mV.txt
Feb. 20, 2023   15:03:51
Linear Sweep Voltammetry
File: d:\current work\al_oer\electrochemical test data\batch 3\400\B3_VARIANCE_400_#3_High_Quality(#24)-234mV.txt
Data Source:  Experiment
Instrument Model:  CHI660E
Header:
Note:

Init E (V) = 1.099

Final E (V) = 1.512

Scan Rate (V/s) = 0.010
Sample Interval (V) = 0.001
Quiet Time (sec) = 2
Sensitivity (A/V) = 0.001
Comp R (ohm) = 7.2

Results:

Channel 1:

Potential/V, Current/A
1.099,   1.364e-4
1.100,   1.417e-4
1.101,   1.340e-4
1.102,   1.257e-4
1.103,   1.189e-4
1.104,   1.126e-4
1.105,   1.072e-4
1.106,   1.025e-4
1.107,   9.835e-5
1.108,   9.464e-5
1.109,   9.139e-5
1.110,   8.836e-5
1.111,   8.598e-5
1.112,   8.351e-5
1.113,   8.147e-5
1.114,   7.963e-5
1.115,   7.774e-5
1.116,   7.622e-5
1.117,   7.484e-5
1.118,   7.332e-5
1.119,   7.235e-5
1.120,   7.140e-5
1.121,   7.015e-5
1.122,   6.934e-5
1.123,   6.819e-5
1.124,   6.752e-5
1.125,   6.679e-5
1.126,   6.605e-5
1.127,   6.541e-5
1.128,   6.474e-5
1.129,   6.419e-5
1.130,   6.385e-5
1.131,   6.303e-5
1.132,   6.278e-5
1.133,   6.241e-5
1.134,   6.186e-5
1.135,   6.158e-5
1.136,   6.114e-5
1.137,   6.081e-5
1.138,   6.058e-5
1.139,   6.015e-5
1.140,   5.986e-5
1.141,   5.969e-5
1.142,   5.936e-5
1.143,   5.916e-5
1.144,   5.887e-5
1.145,   5.873e-5
1.146,   5.869e-5
1.147,   5.825e-5
1.148,   5.811e-5
1.149,   5.808e-5
1.150,   5.775e-5
1.151,   5.772e-5
1.152,   5.755e-5
1.153,   5.735e-5
1.154,   5.735e-5
1.155,   5.707e-5
1.156,   5.700e-5
1.157,   5.697e-5
1.158,   5.684e-5
1.159,   5.676e-5
1.160,   5.658e-5
1.161,   5.653e-5
1.162,   5.658e-5
1.163,   5.623e-5
1.164,   5.634e-5
1.165,   5.642e-5
1.166,   5.607e-5
1.167,   5.622e-5
1.168,   5.610e-5
1.169,   5.591e-5
1.170,   5.607e-5
1.171,   5.600e-5
1.172,   5.593e-5
1.173,   5.599e-5
1.174,   5.571e-5
1.175,   5.586e-5
1.176,   5.575e-5
1.177,   5.572e-5
1.178,   5.584e-5
1.179,   5.560e-5
1.180,   5.569e-5
1.181,   5.571e-5
1.182,   5.545e-5
1.183,   5.576e-5
1.184,   5.572e-5
1.185,   5.563e-5
1.186,   5.566e-5
1.187,   5.550e-5
1.188,   5.555e-5
1.189,   5.567e-5
1.190,   5.553e-5
1.191,   5.563e-5
1.192,   5.555e-5
1.193,   5.547e-5
1.194,   5.564e-5
1.195,   5.552e-5
1.196,   5.566e-5
1.197,   5.569e-5
1.198,   5.553e-5
1.199,   5.564e-5
1.200,   5.556e-5
1.201,   5.553e-5
1.202,   5.574e-5
1.203,   5.569e-5
1.204,   5.558e-5
1.205,   5.576e-5
1.206,   5.555e-5
1.207,   5.577e-5
1.208,   5.564e-5
1.209,   5.586e-5
1.210,   5.600e-5
1.211,   5.565e-5
1.212,   5.581e-5
1.213,   5.602e-5
1.214,   5.572e-5
1.215,   5.598e-5
1.216,   5.601e-5
1.217,   5.591e-5
1.218,   5.610e-5
1.219,   5.599e-5
1.220,   5.609e-5
1.221,   5.616e-5
1.222,   5.608e-5
1.223,   5.618e-5
1.224,   5.621e-5
1.225,   5.617e-5
1.226,   5.634e-5
1.227,   5.621e-5
1.228,   5.636e-5
1.229,   5.645e-5
1.230,   5.629e-5
1.231,   5.644e-5
1.232,   5.642e-5
1.233,   5.635e-5
1.234,   5.665e-5
1.235,   5.661e-5
1.236,   5.648e-5
1.237,   5.663e-5
1.238,   5.662e-5
1.239,   5.681e-5
1.240,   5.668e-5
1.241,   5.675e-5
1.242,   5.694e-5
1.243,   5.669e-5
1.244,   5.691e-5
1.245,   5.700e-5
1.246,   5.684e-5
1.247,   5.716e-5
1.248,   5.717e-5
1.249,   5.703e-5
1.250,   5.731e-5
1.251,   5.722e-5
1.252,   5.729e-5
1.253,   5.736e-5
1.254,   5.733e-5
1.255,   5.743e-5
1.256,   5.743e-5
1.257,   5.749e-5
1.258,   5.765e-5
1.259,   5.748e-5
1.260,   5.764e-5
1.261,   5.783e-5
1.262,   5.768e-5
1.263,   5.789e-5
1.264,   5.779e-5
1.265,   5.777e-5
1.266,   5.809e-5
1.267,   5.796e-5
1.268,   5.799e-5
1.269,   5.815e-5
1.270,   5.799e-5
1.271,   5.823e-5
1.272,   5.827e-5
1.273,   5.839e-5
1.274,   5.850e-5
1.275,   5.826e-5
1.276,   5.847e-5
1.277,   5.865e-5
1.278,   5.842e-5
1.279,   5.873e-5
1.280,   5.879e-5
1.281,   5.867e-5
1.282,   5.890e-5
1.283,   5.871e-5
1.284,   5.895e-5
1.285,   5.902e-5
1.286,   5.910e-5
1.287,   5.922e-5
1.288,   5.916e-5
1.289,   5.919e-5
1.290,   5.945e-5
1.291,   5.924e-5
1.292,   5.942e-5
1.293,   5.967e-5
1.294,   5.943e-5
1.295,   5.972e-5
1.296,   5.974e-5
1.297,   5.964e-5
1.298,   5.994e-5
1.299,   6.000e-5
1.300,   6.000e-5
1.301,   6.010e-5
1.302,   6.009e-5
1.303,   6.030e-5
1.304,   6.035e-5
1.305,   6.043e-5
1.306,   6.066e-5
1.307,   6.046e-5
1.308,   6.060e-5
1.309,   6.082e-5
1.310,   6.071e-5
1.311,   6.109e-5
1.312,   6.117e-5
1.313,   6.103e-5
1.314,   6.133e-5
1.315,   6.125e-5
1.316,   6.142e-5
1.317,   6.160e-5
1.318,   6.161e-5
1.319,   6.182e-5
1.320,   6.178e-5
1.321,   6.191e-5
1.322,   6.215e-5
1.323,   6.205e-5
1.324,   6.247e-5
1.325,   6.272e-5
1.326,   6.239e-5
1.327,   6.273e-5
1.328,   6.279e-5
1.329,   6.282e-5
1.330,   6.315e-5
1.331,   6.318e-5
1.332,   6.328e-5
1.333,   6.355e-5
1.334,   6.356e-5
1.335,   6.381e-5
1.336,   6.392e-5
1.337,   6.424e-5
1.338,   6.446e-5
1.339,   6.435e-5
1.340,   6.464e-5
1.341,   6.489e-5
1.342,   6.481e-5
1.343,   6.524e-5
1.344,   6.546e-5
1.345,   6.551e-5
1.346,   6.587e-5
1.347,   6.601e-5
1.348,   6.627e-5
1.349,   6.657e-5
1.350,   6.666e-5
1.351,   6.710e-5
1.352,   6.724e-5
1.353,   6.744e-5
1.354,   6.789e-5
1.355,   6.796e-5
1.356,   6.838e-5
1.357,   6.880e-5
1.358,   6.880e-5
1.359,   6.939e-5
1.360,   6.975e-5
1.361,   7.000e-5
1.362,   7.053e-5
1.363,   7.099e-5
1.364,   7.130e-5
1.365,   7.191e-5
1.366,   7.218e-5
1.367,   7.269e-5
1.368,   7.313e-5
1.369,   7.382e-5
1.370,   7.443e-5
1.371,   7.470e-5
1.372,   7.557e-5
1.373,   7.637e-5
1.374,   7.686e-5
1.375,   7.779e-5
1.376,   7.861e-5
1.377,   7.924e-5
1.378,   8.027e-5
1.379,   8.098e-5
1.380,   8.198e-5
1.381,   8.319e-5
1.382,   8.411e-5
1.383,   8.534e-5
1.384,   8.650e-5
1.385,   8.776e-5
1.386,   8.938e-5
1.387,   9.057e-5
1.388,   9.234e-5
1.389,   9.403e-5
1.390,   9.558e-5
1.391,   9.757e-5
1.392,   9.948e-5
1.393,   1.015e-4
1.394,   1.040e-4
1.395,   1.063e-4
1.396,   1.088e-4
1.397,   1.115e-4
1.398,   1.144e-4
1.399,   1.175e-4
1.400,   1.208e-4
1.401,   1.243e-4
1.402,   1.280e-4
1.403,   1.317e-4
1.404,   1.360e-4
1.405,   1.404e-4
1.406,   1.448e-4
1.407,   1.501e-4
1.408,   1.554e-4
1.409,   1.609e-4
1.410,   1.670e-4
1.411,   1.732e-4
1.412,   1.798e-4
1.413,   1.871e-4
1.414,   1.944e-4
1.415,   2.024e-4
1.416,   2.107e-4
1.417,   2.196e-4
1.418,   2.292e-4
1.419,   2.389e-4
1.420,   2.497e-4
1.421,   2.610e-4
1.422,   2.723e-4
1.423,   2.849e-4
1.424,   2.980e-4
1.425,   3.118e-4
1.426,   3.266e-4
1.427,   3.419e-4
1.428,   3.580e-4
1.429,   3.750e-4
1.430,   3.928e-4
1.431,   4.118e-4
1.432,   4.316e-4
1.433,   4.525e-4
1.434,   4.746e-4
1.435,   4.974e-4
1.436,   5.215e-4
1.437,   5.470e-4
1.438,   5.733e-4
1.439,   6.013e-4
1.440,   6.306e-4
1.441,   6.611e-4
1.442,   6.934e-4
1.443,   7.266e-4
1.444,   7.616e-4
1.445,   7.987e-4
1.446,   8.365e-4
1.447,   8.768e-4
1.448,   9.183e-4
1.449,   9.623e-4
1.450,   1.008e-3
1.451,   1.055e-3
1.452,   1.105e-3
1.453,   1.156e-3
1.454,   1.210e-3
1.455,   1.266e-3
1.456,   1.324e-3
1.457,   1.384e-3
1.458,   1.446e-3
1.459,   1.511e-3
1.460,   1.580e-3
1.461,   1.650e-3
1.462,   1.723e-3
1.463,   1.798e-3
1.464,   1.875e-3
1.465,   1.957e-3
1.466,   2.043e-3
1.467,   2.130e-3
1.468,   2.220e-3
1.469,   2.312e-3
1.470,   2.407e-3
1.471,   2.506e-3
1.472,   2.603e-3
1.473,   2.710e-3
1.474,   2.817e-3
1.475,   2.928e-3
1.476,   3.043e-3
1.477,   3.159e-3
1.478,   3.277e-3
1.479,   3.405e-3
1.480,   3.533e-3
1.481,   3.670e-3
1.482,   3.806e-3
1.483,   3.939e-3
1.484,   4.086e-3
1.485,   4.243e-3
1.486,   4.394e-3
1.487,   4.546e-3
1.488,   4.704e-3
1.489,   4.869e-3
1.490,   5.034e-3
1.491,   5.243e-3
1.492,   5.419e-3
1.493,   5.599e-3
1.494,   5.764e-3
1.495,   5.935e-3
1.496,   6.105e-3
1.497,   6.320e-3
1.498,   6.600e-3
1.499,   6.849e-3
1.500,   7.170e-3
1.501,   7.440e-3
1.502,   7.623e-3
1.503,   7.817e-3
1.504,   8.042e-3
1.505,   8.283e-3
1.506,   8.492e-3
1.507,   8.753e-3
1.508,   8.967e-3
1.509,   9.155e-3
1.510,   9.398e-3
1.511,   9.777e-3
1.512,   1.006e-2