File: Experimental Records, Raw Data, and Supplementary Notes and Figures/batch3/final400/B3_VARIANCE_400_#3_Full(#11)-263mV.txt
Feb. 20, 2023   15:45:04
Linear Sweep Voltammetry
File: d:\current work\al_oer\electrochemical test data\batch 3\400\B3_VARIANCE_400_#3_Full(#11)-263mV.txt
Data Source:  Experiment
Instrument Model:  CHI660E
Header:
Note:

Init E (V) = 1.089

Final E (V) = 1.658

Scan Rate (V/s) = 0.010
Sample Interval (V) = 0.001
Quiet Time (sec) = 2
Sensitivity (A/V) = 0.001
Comp R (ohm) = 5.3

Results:

Channel 1:
Ep = 1.436V
ip = 5.679e-3A
Ah = 1.208e-1C

Potential/V, Current/A
1.089,   9.252e-5
1.090,   8.736e-5
1.091,   8.172e-5
1.092,   7.652e-5
1.093,   7.194e-5
1.094,   6.783e-5
1.095,   6.425e-5
1.096,   6.107e-5
1.097,   5.818e-5
1.098,   5.559e-5
1.099,   5.325e-5
1.100,   5.113e-5
1.101,   4.921e-5
1.102,   4.742e-5
1.103,   4.583e-5
1.104,   4.439e-5
1.105,   4.302e-5
1.106,   4.174e-5
1.107,   4.057e-5
1.108,   3.950e-5
1.109,   3.849e-5
1.110,   3.767e-5
1.111,   3.684e-5
1.112,   3.600e-5
1.113,   3.525e-5
1.114,   3.454e-5
1.115,   3.386e-5
1.116,   3.321e-5
1.117,   3.267e-5
1.118,   3.214e-5
1.119,   3.162e-5
1.120,   3.113e-5
1.121,   3.060e-5
1.122,   3.020e-5
1.123,   2.980e-5
1.124,   2.940e-5
1.125,   2.905e-5
1.126,   2.866e-5
1.127,   2.831e-5
1.128,   2.801e-5
1.129,   2.770e-5
1.130,   2.744e-5
1.131,   2.722e-5
1.132,   2.694e-5
1.133,   2.673e-5
1.134,   2.650e-5
1.135,   2.631e-5
1.136,   2.609e-5
1.137,   2.586e-5
1.138,   2.569e-5
1.139,   2.553e-5
1.140,   2.535e-5
1.141,   2.519e-5
1.142,   2.502e-5
1.143,   2.486e-5
1.144,   2.478e-5
1.145,   2.460e-5
1.146,   2.450e-5
1.147,   2.441e-5
1.148,   2.431e-5
1.149,   2.419e-5
1.150,   2.407e-5
1.151,   2.399e-5
1.152,   2.398e-5
1.153,   2.383e-5
1.154,   2.375e-5
1.155,   2.368e-5
1.156,   2.354e-5
1.157,   2.351e-5
1.158,   2.355e-5
1.159,   2.367e-5
1.160,   2.320e-5
1.161,   2.320e-5
1.162,   2.320e-5
1.163,   2.321e-5
1.164,   2.314e-5
1.165,   2.312e-5
1.166,   2.305e-5
1.167,   2.305e-5
1.168,   2.304e-5
1.169,   2.296e-5
1.170,   2.295e-5
1.171,   2.291e-5
1.172,   2.285e-5
1.173,   2.288e-5
1.174,   2.289e-5
1.175,   2.283e-5
1.176,   2.282e-5
1.177,   2.283e-5
1.178,   2.280e-5
1.179,   2.277e-5
1.180,   2.276e-5
1.181,   2.277e-5
1.182,   2.278e-5
1.183,   2.274e-5
1.184,   2.273e-5
1.185,   2.271e-5
1.186,   2.276e-5
1.187,   2.275e-5
1.188,   2.272e-5
1.189,   2.274e-5
1.190,   2.273e-5
1.191,   2.271e-5
1.192,   2.272e-5
1.193,   2.276e-5
1.194,   2.274e-5
1.195,   2.279e-5
1.196,   2.276e-5
1.197,   2.280e-5
1.198,   2.277e-5
1.199,   2.277e-5
1.200,   2.276e-5
1.201,   2.276e-5
1.202,   2.278e-5
1.203,   2.282e-5
1.204,   2.281e-5
1.205,   2.282e-5
1.206,   2.283e-5
1.207,   2.288e-5
1.208,   2.286e-5
1.209,   2.286e-5
1.210,   2.291e-5
1.211,   2.291e-5
1.212,   2.291e-5
1.213,   2.292e-5
1.214,   2.294e-5
1.215,   2.296e-5
1.216,   2.300e-5
1.217,   2.299e-5
1.218,   2.303e-5
1.219,   2.302e-5
1.220,   2.304e-5
1.221,   2.306e-5
1.222,   2.307e-5
1.223,   2.307e-5
1.224,   2.311e-5
1.225,   2.313e-5
1.226,   2.314e-5
1.227,   2.318e-5
1.228,   2.314e-5
1.229,   2.323e-5
1.230,   2.319e-5
1.231,   2.323e-5
1.232,   2.328e-5
1.233,   2.324e-5
1.234,   2.332e-5
1.235,   2.327e-5
1.236,   2.329e-5
1.237,   2.338e-5
1.238,   2.339e-5
1.239,   2.339e-5
1.240,   2.342e-5
1.241,   2.340e-5
1.242,   2.342e-5
1.243,   2.348e-5
1.244,   2.345e-5
1.245,   2.349e-5
1.246,   2.354e-5
1.247,   2.353e-5
1.248,   2.355e-5
1.249,   2.361e-5
1.250,   2.365e-5
1.251,   2.369e-5
1.252,   2.368e-5
1.253,   2.370e-5
1.254,   2.367e-5
1.255,   2.372e-5
1.256,   2.379e-5
1.257,   2.378e-5
1.258,   2.381e-5
1.259,   2.385e-5
1.260,   2.387e-5
1.261,   2.391e-5
1.262,   2.392e-5
1.263,   2.395e-5
1.264,   2.405e-5
1.265,   2.404e-5
1.266,   2.405e-5
1.267,   2.411e-5
1.268,   2.411e-5
1.269,   2.413e-5
1.270,   2.417e-5
1.271,   2.420e-5
1.272,   2.427e-5
1.273,   2.424e-5
1.274,   2.429e-5
1.275,   2.432e-5
1.276,   2.438e-5
1.277,   2.438e-5
1.278,   2.441e-5
1.279,   2.447e-5
1.280,   2.450e-5
1.281,   2.451e-5
1.282,   2.457e-5
1.283,   2.464e-5
1.284,   2.462e-5
1.285,   2.465e-5
1.286,   2.470e-5
1.287,   2.471e-5
1.288,   2.480e-5
1.289,   2.486e-5
1.290,   2.486e-5
1.291,   2.494e-5
1.292,   2.495e-5
1.293,   2.503e-5
1.294,   2.508e-5
1.295,   2.510e-5
1.296,   2.518e-5
1.297,   2.519e-5
1.298,   2.526e-5
1.299,   2.531e-5
1.300,   2.532e-5
1.301,   2.539e-5
1.302,   2.548e-5
1.303,   2.549e-5
1.304,   2.554e-5
1.305,   2.558e-5
1.306,   2.565e-5
1.307,   2.572e-5
1.308,   2.577e-5
1.309,   2.587e-5
1.310,   2.591e-5
1.311,   2.601e-5
1.312,   2.603e-5
1.313,   2.603e-5
1.314,   2.619e-5
1.315,   2.629e-5
1.316,   2.629e-5
1.317,   2.639e-5
1.318,   2.647e-5
1.319,   2.655e-5
1.320,   2.661e-5
1.321,   2.666e-5
1.322,   2.673e-5
1.323,   2.684e-5
1.324,   2.690e-5
1.325,   2.697e-5
1.326,   2.703e-5
1.327,   2.717e-5
1.328,   2.728e-5
1.329,   2.732e-5
1.330,   2.741e-5
1.331,   2.752e-5
1.332,   2.758e-5
1.333,   2.772e-5
1.334,   2.783e-5
1.335,   2.791e-5
1.336,   2.806e-5
1.337,   2.814e-5
1.338,   2.831e-5
1.339,   2.840e-5
1.340,   2.857e-5
1.341,   2.869e-5
1.342,   2.879e-5
1.343,   2.891e-5
1.344,   2.910e-5
1.345,   2.920e-5
1.346,   2.939e-5
1.347,   2.956e-5
1.348,   2.969e-5
1.349,   2.992e-5
1.350,   3.005e-5
1.351,   3.020e-5
1.352,   3.048e-5
1.353,   3.069e-5
1.354,   3.088e-5
1.355,   3.111e-5
1.356,   3.133e-5
1.357,   3.162e-5
1.358,   3.187e-5
1.359,   3.218e-5
1.360,   3.245e-5
1.361,   3.273e-5
1.362,   3.309e-5
1.363,   3.345e-5
1.364,   3.372e-5
1.365,   3.415e-5
1.366,   3.465e-5
1.367,   3.505e-5
1.368,   3.551e-5
1.369,   3.596e-5
1.370,   3.644e-5
1.371,   3.699e-5
1.372,   3.746e-5
1.373,   3.802e-5
1.374,   3.858e-5
1.375,   3.927e-5
1.376,   4.002e-5
1.377,   4.076e-5
1.378,   4.156e-5
1.379,   4.243e-5
1.380,   4.328e-5
1.381,   4.429e-5
1.382,   4.533e-5
1.383,   4.637e-5
1.384,   4.754e-5
1.385,   4.873e-5
1.386,   5.011e-5
1.387,   5.149e-5
1.388,   5.284e-5
1.389,   5.441e-5
1.390,   5.604e-5
1.391,   5.771e-5
1.392,   5.957e-5
1.393,   6.145e-5
1.394,   6.346e-5
1.395,   6.560e-5
1.396,   6.786e-5
1.397,   7.025e-5
1.398,   7.276e-5
1.399,   7.542e-5
1.400,   7.828e-5
1.401,   8.118e-5
1.402,   8.421e-5
1.403,   8.745e-5
1.404,   9.086e-5
1.405,   9.437e-5
1.406,   9.803e-5
1.407,   1.019e-4
1.408,   1.060e-4
1.409,   1.102e-4
1.410,   1.146e-4
1.411,   1.193e-4
1.412,   1.242e-4
1.413,   1.293e-4
1.414,   1.345e-4
1.415,   1.400e-4
1.416,   1.458e-4
1.417,   1.518e-4
1.418,   1.581e-4
1.419,   1.647e-4
1.420,   1.714e-4
1.421,   1.785e-4
1.422,   1.859e-4
1.423,   1.934e-4
1.424,   2.013e-4
1.425,   2.095e-4
1.426,   2.180e-4
1.427,   2.269e-4
1.428,   2.362e-4
1.429,   2.459e-4
1.430,   2.558e-4
1.431,   2.661e-4
1.432,   2.768e-4
1.433,   2.878e-4
1.434,   2.994e-4
1.435,   3.123e-4
1.436,   3.244e-4
1.437,   3.380e-4
1.438,   3.496e-4
1.439,   3.650e-4
1.440,   3.779e-4
1.441,   3.921e-4
1.442,   4.091e-4
1.443,   4.217e-4
1.444,   4.402e-4
1.445,   4.557e-4
1.446,   4.720e-4
1.447,   4.937e-4
1.448,   5.080e-4
1.449,   5.248e-4
1.450,   5.446e-4
1.451,   5.648e-4
1.452,   5.856e-4
1.453,   6.050e-4
1.454,   6.243e-4
1.455,   6.460e-4
1.456,   6.762e-4
1.457,   6.994e-4
1.458,   7.231e-4
1.459,   7.478e-4
1.460,   7.731e-4
1.461,   7.964e-4
1.462,   8.219e-4
1.463,   8.485e-4
1.464,   8.791e-4
1.465,   9.056e-4
1.466,   9.319e-4
1.467,   9.585e-4
1.468,   9.878e-4
1.469,   1.016e-3
1.470,   1.045e-3
1.471,   1.075e-3
1.472,   1.105e-3
1.473,   1.136e-3
1.474,   1.167e-3
1.475,   1.202e-3
1.476,   1.237e-3
1.477,   1.270e-3
1.478,   1.305e-3
1.479,   1.339e-3
1.480,   1.373e-3
1.481,   1.409e-3
1.482,   1.448e-3
1.483,   1.484e-3
1.484,   1.525e-3
1.485,   1.566e-3
1.486,   1.603e-3
1.487,   1.642e-3
1.488,   1.680e-3
1.489,   1.721e-3
1.490,   1.769e-3
1.491,   1.804e-3
1.492,   1.842e-3
1.493,   1.887e-3
1.494,   1.967e-3
1.495,   2.011e-3
1.496,   2.045e-3
1.497,   2.082e-3
1.498,   2.122e-3
1.499,   2.161e-3
1.500,   2.200e-3
1.501,   2.237e-3
1.502,   2.274e-3
1.503,   2.313e-3
1.504,   2.353e-3
1.505,   2.395e-3
1.506,   2.437e-3
1.507,   2.480e-3
1.508,   2.523e-3
1.509,   2.566e-3
1.510,   2.609e-3
1.511,   2.651e-3
1.512,   2.695e-3
1.513,   2.739e-3
1.514,   2.783e-3
1.515,   2.827e-3
1.516,   2.871e-3
1.517,   2.916e-3
1.518,   2.960e-3
1.519,   3.006e-3
1.520,   3.051e-3
1.521,   3.095e-3
1.522,   3.140e-3
1.523,   3.184e-3
1.524,   3.229e-3
1.525,   3.275e-3
1.526,   3.319e-3
1.527,   3.362e-3
1.528,   3.405e-3
1.529,   3.449e-3
1.530,   3.491e-3
1.531,   3.534e-3
1.532,   3.578e-3
1.533,   3.623e-3
1.534,   3.666e-3
1.535,   3.708e-3
1.536,   3.751e-3
1.537,   3.793e-3
1.538,   3.836e-3
1.539,   3.878e-3
1.540,   3.920e-3
1.541,   3.962e-3
1.542,   4.003e-3
1.543,   4.045e-3
1.544,   4.085e-3
1.545,   4.126e-3
1.546,   4.167e-3
1.547,   4.207e-3
1.548,   4.248e-3
1.549,   4.289e-3
1.550,   4.328e-3
1.551,   4.367e-3
1.552,   4.406e-3
1.553,   4.444e-3
1.554,   4.483e-3
1.555,   4.520e-3
1.556,   4.558e-3
1.557,   4.594e-3
1.558,   4.631e-3
1.559,   4.668e-3
1.560,   4.704e-3
1.561,   4.739e-3
1.562,   4.776e-3
1.563,   4.811e-3
1.564,   4.846e-3
1.565,   4.882e-3
1.566,   4.914e-3
1.567,   4.948e-3
1.568,   4.980e-3
1.569,   5.011e-3
1.570,   5.043e-3
1.571,   5.075e-3
1.572,   5.107e-3
1.573,   5.138e-3
1.574,   5.167e-3
1.575,   5.196e-3
1.576,   5.226e-3
1.577,   5.254e-3
1.578,   5.281e-3
1.579,   5.307e-3
1.580,   5.332e-3
1.581,   5.358e-3
1.582,   5.384e-3
1.583,   5.409e-3
1.584,   5.437e-3
1.585,   5.462e-3
1.586,   5.488e-3
1.587,   5.511e-3
1.588,   5.532e-3
1.589,   5.553e-3
1.590,   5.575e-3
1.591,   5.597e-3
1.592,   5.618e-3
1.593,   5.636e-3
1.594,   5.654e-3
1.595,   5.671e-3
1.596,   5.688e-3
1.597,   5.705e-3
1.598,   5.724e-3
1.599,   5.740e-3
1.600,   5.754e-3
1.601,   5.767e-3
1.602,   5.782e-3
1.603,   5.795e-3
1.604,   5.805e-3
1.605,   5.817e-3
1.606,   5.829e-3
1.607,   5.839e-3
1.608,   5.850e-3
1.609,   5.861e-3
1.610,   5.871e-3
1.611,   5.879e-3
1.612,   5.886e-3
1.613,   5.892e-3
1.614,   5.897e-3
1.615,   5.904e-3
1.616,   5.911e-3
1.617,   5.917e-3
1.618,   5.921e-3
1.619,   5.923e-3
1.620,   5.925e-3
1.621,   5.928e-3
1.622,   5.930e-3
1.623,   5.934e-3
1.624,   5.937e-3
1.625,   5.937e-3
1.626,   5.936e-3
1.627,   5.934e-3
1.628,   5.934e-3
1.629,   5.932e-3
1.630,   5.930e-3
1.631,   5.928e-3
1.632,   5.925e-3
1.633,   5.922e-3
1.634,   5.922e-3
1.635,   5.918e-3
1.636,   5.913e-3
1.637,   5.909e-3
1.638,   5.903e-3
1.639,   5.897e-3
1.640,   5.892e-3
1.641,   5.892e-3
1.642,   5.885e-3
1.643,   5.877e-3
1.644,   5.869e-3
1.645,   5.861e-3
1.646,   5.851e-3
1.647,   5.842e-3
1.648,   5.833e-3
1.649,   5.823e-3
1.650,   5.813e-3
1.651,   5.802e-3
1.652,   5.793e-3
1.653,   5.782e-3
1.654,   5.770e-3
1.655,   5.759e-3
1.656,   5.749e-3
1.657,   5.737e-3
1.658,   5.725e-3