File: Experimental Records, Raw Data, and Supplementary Notes and Figures/batch2/final400/B2_BEST_400#11_Full-270mV.txt
Jan. 18, 2023   14:15:32
Linear Sweep Voltammetry
File: d:\current work\al_oer\electrochemical test data\batch 2\400\B2_BEST_400#11_Full-270mV.txt
Data Source:  Experiment
Instrument Model:  CHI660E
Header:
Note:

Init E (V) = 1.098

Final E (V) = 1.590

Scan Rate (V/s) = 0.010
Sample Interval (V) = 0.001
Quiet Time (sec) = 2
Sensitivity (A/V) = 0.001
Comp R (ohm) = 5.1

Results:

Channel 1:

Potential/V, Current/A
1.098,   1.018e-4
1.099,   9.666e-5
1.100,   9.018e-5
1.101,   8.427e-5
1.102,   7.916e-5
1.103,   7.469e-5
1.104,   7.065e-5
1.105,   6.717e-5
1.106,   6.399e-5
1.107,   6.120e-5
1.108,   5.877e-5
1.109,   5.643e-5
1.110,   5.437e-5
1.111,   5.256e-5
1.112,   5.091e-5
1.113,   4.942e-5
1.114,   4.802e-5
1.115,   4.682e-5
1.116,   4.576e-5
1.117,   4.469e-5
1.118,   4.374e-5
1.119,   4.284e-5
1.120,   4.196e-5
1.121,   4.115e-5
1.122,   4.035e-5
1.123,   3.964e-5
1.124,   3.903e-5
1.125,   3.833e-5
1.126,   3.783e-5
1.127,   3.732e-5
1.128,   3.675e-5
1.129,   3.634e-5
1.130,   3.584e-5
1.131,   3.545e-5
1.132,   3.509e-5
1.133,   3.461e-5
1.134,   3.428e-5
1.135,   3.395e-5
1.136,   3.364e-5
1.137,   3.334e-5
1.138,   3.300e-5
1.139,   3.275e-5
1.140,   3.248e-5
1.141,   3.218e-5
1.142,   3.200e-5
1.143,   3.171e-5
1.144,   3.153e-5
1.145,   3.135e-5
1.146,   3.113e-5
1.147,   3.095e-5
1.148,   3.081e-5
1.149,   3.056e-5
1.150,   3.047e-5
1.151,   3.034e-5
1.152,   3.020e-5
1.153,   3.018e-5
1.154,   2.994e-5
1.155,   2.983e-5
1.156,   2.976e-5
1.157,   2.961e-5
1.158,   2.946e-5
1.159,   2.930e-5
1.160,   2.916e-5
1.161,   2.909e-5
1.162,   2.896e-5
1.163,   2.888e-5
1.164,   2.877e-5
1.165,   2.866e-5
1.166,   2.858e-5
1.167,   2.854e-5
1.168,   2.846e-5
1.169,   2.843e-5
1.170,   2.831e-5
1.171,   2.830e-5
1.172,   2.820e-5
1.173,   2.805e-5
1.174,   2.810e-5
1.175,   2.795e-5
1.176,   2.795e-5
1.177,   2.792e-5
1.178,   2.783e-5
1.179,   2.781e-5
1.180,   2.775e-5
1.181,   2.762e-5
1.182,   2.764e-5
1.183,   2.759e-5
1.184,   2.751e-5
1.185,   2.752e-5
1.186,   2.738e-5
1.187,   2.733e-5
1.188,   2.734e-5
1.189,   2.727e-5
1.190,   2.728e-5
1.191,   2.721e-5
1.192,   2.717e-5
1.193,   2.717e-5
1.194,   2.711e-5
1.195,   2.709e-5
1.196,   2.711e-5
1.197,   2.701e-5
1.198,   2.706e-5
1.199,   2.700e-5
1.200,   2.689e-5
1.201,   2.689e-5
1.202,   2.687e-5
1.203,   2.687e-5
1.204,   2.683e-5
1.205,   2.671e-5
1.206,   2.673e-5
1.207,   2.664e-5
1.208,   2.666e-5
1.209,   2.664e-5
1.210,   2.659e-5
1.211,   2.658e-5
1.212,   2.658e-5
1.213,   2.644e-5
1.214,   2.655e-5
1.215,   2.654e-5
1.216,   2.648e-5
1.217,   2.653e-5
1.218,   2.642e-5
1.219,   2.643e-5
1.220,   2.647e-5
1.221,   2.652e-5
1.222,   2.644e-5
1.223,   2.648e-5
1.224,   2.643e-5
1.225,   2.648e-5
1.226,   2.646e-5
1.227,   2.636e-5
1.228,   2.640e-5
1.229,   2.644e-5
1.230,   2.641e-5
1.231,   2.645e-5
1.232,   2.647e-5
1.233,   2.651e-5
1.234,   2.647e-5
1.235,   2.646e-5
1.236,   2.645e-5
1.237,   2.640e-5
1.238,   2.645e-5
1.239,   2.640e-5
1.240,   2.649e-5
1.241,   2.651e-5
1.242,   2.648e-5
1.243,   2.650e-5
1.244,   2.654e-5
1.245,   2.644e-5
1.246,   2.652e-5
1.247,   2.654e-5
1.248,   2.651e-5
1.249,   2.656e-5
1.250,   2.653e-5
1.251,   2.654e-5
1.252,   2.662e-5
1.253,   2.651e-5
1.254,   2.661e-5
1.255,   2.678e-5
1.256,   2.681e-5
1.257,   2.679e-5
1.258,   2.678e-5
1.259,   2.686e-5
1.260,   2.681e-5
1.261,   2.677e-5
1.262,   2.679e-5
1.263,   2.685e-5
1.264,   2.679e-5
1.265,   2.678e-5
1.266,   2.680e-5
1.267,   2.678e-5
1.268,   2.680e-5
1.269,   2.679e-5
1.270,   2.683e-5
1.271,   2.685e-5
1.272,   2.691e-5
1.273,   2.693e-5
1.274,   2.689e-5
1.275,   2.694e-5
1.276,   2.698e-5
1.277,   2.693e-5
1.278,   2.705e-5
1.279,   2.710e-5
1.280,   2.704e-5
1.281,   2.710e-5
1.282,   2.703e-5
1.283,   2.706e-5
1.284,   2.716e-5
1.285,   2.714e-5
1.286,   2.716e-5
1.287,   2.718e-5
1.288,   2.719e-5
1.289,   2.722e-5
1.290,   2.728e-5
1.291,   2.731e-5
1.292,   2.732e-5
1.293,   2.730e-5
1.294,   2.738e-5
1.295,   2.741e-5
1.296,   2.741e-5
1.297,   2.750e-5
1.298,   2.743e-5
1.299,   2.751e-5
1.300,   2.752e-5
1.301,   2.745e-5
1.302,   2.759e-5
1.303,   2.760e-5
1.304,   2.761e-5
1.305,   2.766e-5
1.306,   2.761e-5
1.307,   2.769e-5
1.308,   2.781e-5
1.309,   2.779e-5
1.310,   2.787e-5
1.311,   2.786e-5
1.312,   2.785e-5
1.313,   2.807e-5
1.314,   2.802e-5
1.315,   2.805e-5
1.316,   2.811e-5
1.317,   2.810e-5
1.318,   2.815e-5
1.319,   2.823e-5
1.320,   2.828e-5
1.321,   2.838e-5
1.322,   2.841e-5
1.323,   2.848e-5
1.324,   2.854e-5
1.325,   2.854e-5
1.326,   2.864e-5
1.327,   2.865e-5
1.328,   2.870e-5
1.329,   2.879e-5
1.330,   2.889e-5
1.331,   2.890e-5
1.332,   2.897e-5
1.333,   2.899e-5
1.334,   2.911e-5
1.335,   2.913e-5
1.336,   2.922e-5
1.337,   2.936e-5
1.338,   2.933e-5
1.339,   2.944e-5
1.340,   2.958e-5
1.341,   2.965e-5
1.342,   2.976e-5
1.343,   2.992e-5
1.344,   3.001e-5
1.345,   3.017e-5
1.346,   3.026e-5
1.347,   3.034e-5
1.348,   3.054e-5
1.349,   3.066e-5
1.350,   3.077e-5
1.351,   3.089e-5
1.352,   3.100e-5
1.353,   3.122e-5
1.354,   3.133e-5
1.355,   3.150e-5
1.356,   3.167e-5
1.357,   3.183e-5
1.358,   3.206e-5
1.359,   3.222e-5
1.360,   3.246e-5
1.361,   3.271e-5
1.362,   3.286e-5
1.363,   3.317e-5
1.364,   3.344e-5
1.365,   3.362e-5
1.366,   3.402e-5
1.367,   3.429e-5
1.368,   3.457e-5
1.369,   3.491e-5
1.370,   3.518e-5
1.371,   3.546e-5
1.372,   3.586e-5
1.373,   3.620e-5
1.374,   3.668e-5
1.375,   3.709e-5
1.376,   3.737e-5
1.377,   3.785e-5
1.378,   3.825e-5
1.379,   3.876e-5
1.380,   3.929e-5
1.381,   3.974e-5
1.382,   4.027e-5
1.383,   4.081e-5
1.384,   4.139e-5
1.385,   4.206e-5
1.386,   4.273e-5
1.387,   4.344e-5
1.388,   4.415e-5
1.389,   4.487e-5
1.390,   4.575e-5
1.391,   4.659e-5
1.392,   4.739e-5
1.393,   4.828e-5
1.394,   4.918e-5
1.395,   5.029e-5
1.396,   5.144e-5
1.397,   5.248e-5
1.398,   5.370e-5
1.399,   5.488e-5
1.400,   5.613e-5
1.401,   5.752e-5
1.402,   5.885e-5
1.403,   6.028e-5
1.404,   6.193e-5
1.405,   6.357e-5
1.406,   6.532e-5
1.407,   6.716e-5
1.408,   6.898e-5
1.409,   7.108e-5
1.410,   7.320e-5
1.411,   7.543e-5
1.412,   7.787e-5
1.413,   8.034e-5
1.414,   8.295e-5
1.415,   8.573e-5
1.416,   8.861e-5
1.417,   9.158e-5
1.418,   9.468e-5
1.419,   9.795e-5
1.420,   1.015e-4
1.421,   1.051e-4
1.422,   1.089e-4
1.423,   1.129e-4
1.424,   1.171e-4
1.425,   1.215e-4
1.426,   1.262e-4
1.427,   1.311e-4
1.428,   1.362e-4
1.429,   1.413e-4
1.430,   1.470e-4
1.431,   1.528e-4
1.432,   1.588e-4
1.433,   1.652e-4
1.434,   1.717e-4
1.435,   1.785e-4
1.436,   1.858e-4
1.437,   1.933e-4
1.438,   2.010e-4
1.439,   2.093e-4
1.440,   2.177e-4
1.441,   2.266e-4
1.442,   2.357e-4
1.443,   2.455e-4
1.444,   2.554e-4
1.445,   2.655e-4
1.446,   2.759e-4
1.447,   2.871e-4
1.448,   2.988e-4
1.449,   3.111e-4
1.450,   3.243e-4
1.451,   3.375e-4
1.452,   3.509e-4
1.453,   3.650e-4
1.454,   3.796e-4
1.455,   3.950e-4
1.456,   4.108e-4
1.457,   4.272e-4
1.458,   4.441e-4
1.459,   4.616e-4
1.460,   4.800e-4
1.461,   4.987e-4
1.462,   5.183e-4
1.463,   5.397e-4
1.464,   5.610e-4
1.465,   5.829e-4
1.466,   6.057e-4
1.467,   6.292e-4
1.468,   6.529e-4
1.469,   6.775e-4
1.470,   7.031e-4
1.471,   7.302e-4
1.472,   7.573e-4
1.473,   7.851e-4
1.474,   8.134e-4
1.475,   8.426e-4
1.476,   8.731e-4
1.477,   9.044e-4
1.478,   9.368e-4
1.479,   9.700e-4
1.480,   1.004e-3
1.481,   1.040e-3
1.482,   1.076e-3
1.483,   1.113e-3
1.484,   1.151e-3
1.485,   1.190e-3
1.486,   1.232e-3
1.487,   1.273e-3
1.488,   1.315e-3
1.489,   1.357e-3
1.490,   1.400e-3
1.491,   1.446e-3
1.492,   1.494e-3
1.493,   1.546e-3
1.494,   1.595e-3
1.495,   1.647e-3
1.496,   1.698e-3
1.497,   1.750e-3
1.498,   1.805e-3
1.499,   1.865e-3
1.500,   1.921e-3
1.501,   1.977e-3
1.502,   2.035e-3
1.503,   2.095e-3
1.504,   2.156e-3
1.505,   2.214e-3
1.506,   2.277e-3
1.507,   2.340e-3
1.508,   2.406e-3
1.509,   2.474e-3
1.510,   2.541e-3
1.511,   2.613e-3
1.512,   2.685e-3
1.513,   2.756e-3
1.514,   2.828e-3
1.515,   2.900e-3
1.516,   2.975e-3
1.517,   3.052e-3
1.518,   3.129e-3
1.519,   3.212e-3
1.520,   3.291e-3
1.521,   3.376e-3
1.522,   3.460e-3
1.523,   3.540e-3
1.524,   3.621e-3
1.525,   3.703e-3
1.526,   3.789e-3
1.527,   3.871e-3
1.528,   3.956e-3
1.529,   4.050e-3
1.530,   4.141e-3
1.531,   4.231e-3
1.532,   4.325e-3
1.533,   4.418e-3
1.534,   4.507e-3
1.535,   4.596e-3
1.536,   4.687e-3
1.537,   4.783e-3
1.538,   4.890e-3
1.539,   4.991e-3
1.540,   5.094e-3
1.541,   5.199e-3
1.542,   5.296e-3
1.543,   5.395e-3
1.544,   5.495e-3
1.545,   5.591e-3
1.546,   5.691e-3
1.547,   5.805e-3
1.548,   5.918e-3
1.549,   6.033e-3
1.550,   6.149e-3
1.551,   6.293e-3
1.552,   6.418e-3
1.553,   6.528e-3
1.554,   6.630e-3
1.555,   6.737e-3
1.556,   6.856e-3
1.557,   6.966e-3
1.558,   7.074e-3
1.559,   7.186e-3
1.560,   7.288e-3
1.561,   7.395e-3
1.562,   7.524e-3
1.563,   7.646e-3
1.564,   7.769e-3
1.565,   8.141e-3
1.566,   8.382e-3
1.567,   8.500e-3
1.568,   8.619e-3
1.569,   8.725e-3
1.570,   8.841e-3
1.571,   8.991e-3
1.572,   9.088e-3
1.573,   9.353e-3
1.574,   9.741e-3
1.575,   9.859e-3
1.576,   9.964e-3
1.577,   1.004e-2
1.578,   1.007e-2
1.579,   1.007e-2
1.580,   1.007e-2
1.581,   1.007e-2
1.582,   1.007e-2
1.583,   1.007e-2
1.584,   1.007e-2
1.585,   1.007e-2
1.586,   1.007e-2
1.587,   1.007e-2
1.588,   1.007e-2
1.589,   1.007e-2
1.590,   1.007e-2