File: Experimental Records, Raw Data, and Supplementary Notes and Figures/batch2/final400/B2_BEST_400#12_Full-281mV.txt
Jan. 18, 2023   14:41:13
Linear Sweep Voltammetry
File: d:\current work\al_oer\electrochemical test data\batch 2\400\B2_BEST_400#12_Full-281mV.txt
Data Source:  Experiment
Instrument Model:  CHI660E
Header:
Note:

Init E (V) = 1.098

Final E (V) = 1.659

Scan Rate (V/s) = 0.010
Sample Interval (V) = 0.001
Quiet Time (sec) = 2
Sensitivity (A/V) = 0.001
Comp R (ohm) = 4.8

Results:

Channel 1:

Potential/V, Current/A
1.098,   1.112e-4
1.099,   1.059e-4
1.100,   9.969e-5
1.101,   9.404e-5
1.102,   8.915e-5
1.103,   8.483e-5
1.104,   8.072e-5
1.105,   7.697e-5
1.106,   7.367e-5
1.107,   7.067e-5
1.108,   6.801e-5
1.109,   6.556e-5
1.110,   6.346e-5
1.111,   6.146e-5
1.112,   5.955e-5
1.113,   5.775e-5
1.114,   5.611e-5
1.115,   5.458e-5
1.116,   5.322e-5
1.117,   5.196e-5
1.118,   5.081e-5
1.119,   4.967e-5
1.120,   4.863e-5
1.121,   4.774e-5
1.122,   4.685e-5
1.123,   4.600e-5
1.124,   4.527e-5
1.125,   4.443e-5
1.126,   4.370e-5
1.127,   4.301e-5
1.128,   4.229e-5
1.129,   4.170e-5
1.130,   4.115e-5
1.131,   4.066e-5
1.132,   4.018e-5
1.133,   3.962e-5
1.134,   3.916e-5
1.135,   3.871e-5
1.136,   3.831e-5
1.137,   3.798e-5
1.138,   3.757e-5
1.139,   3.723e-5
1.140,   3.691e-5
1.141,   3.660e-5
1.142,   3.632e-5
1.143,   3.594e-5
1.144,   3.566e-5
1.145,   3.540e-5
1.146,   3.517e-5
1.147,   3.486e-5
1.148,   3.463e-5
1.149,   3.431e-5
1.150,   3.404e-5
1.151,   3.381e-5
1.152,   3.361e-5
1.153,   3.341e-5
1.154,   3.316e-5
1.155,   3.301e-5
1.156,   3.281e-5
1.157,   3.264e-5
1.158,   3.245e-5
1.159,   3.234e-5
1.160,   3.224e-5
1.161,   3.209e-5
1.162,   3.193e-5
1.163,   3.178e-5
1.164,   3.167e-5
1.165,   3.151e-5
1.166,   3.141e-5
1.167,   3.121e-5
1.168,   3.109e-5
1.169,   3.103e-5
1.170,   3.090e-5
1.171,   3.079e-5
1.172,   3.066e-5
1.173,   3.053e-5
1.174,   3.043e-5
1.175,   3.031e-5
1.176,   3.024e-5
1.177,   3.019e-5
1.178,   3.008e-5
1.179,   2.997e-5
1.180,   2.988e-5
1.181,   2.979e-5
1.182,   2.972e-5
1.183,   2.965e-5
1.184,   2.953e-5
1.185,   2.949e-5
1.186,   2.934e-5
1.187,   2.928e-5
1.188,   2.920e-5
1.189,   2.915e-5
1.190,   2.912e-5
1.191,   2.906e-5
1.192,   2.899e-5
1.193,   2.894e-5
1.194,   2.885e-5
1.195,   2.882e-5
1.196,   2.881e-5
1.197,   2.872e-5
1.198,   2.868e-5
1.199,   2.862e-5
1.200,   2.855e-5
1.201,   2.852e-5
1.202,   2.841e-5
1.203,   2.842e-5
1.204,   2.835e-5
1.205,   2.830e-5
1.206,   2.835e-5
1.207,   2.824e-5
1.208,   2.822e-5
1.209,   2.824e-5
1.210,   2.820e-5
1.211,   2.818e-5
1.212,   2.818e-5
1.213,   2.812e-5
1.214,   2.812e-5
1.215,   2.811e-5
1.216,   2.811e-5
1.217,   2.814e-5
1.218,   2.809e-5
1.219,   2.804e-5
1.220,   2.799e-5
1.221,   2.801e-5
1.222,   2.802e-5
1.223,   2.800e-5
1.224,   2.801e-5
1.225,   2.802e-5
1.226,   2.793e-5
1.227,   2.795e-5
1.228,   2.795e-5
1.229,   2.793e-5
1.230,   2.797e-5
1.231,   2.786e-5
1.232,   2.788e-5
1.233,   2.798e-5
1.234,   2.795e-5
1.235,   2.794e-5
1.236,   2.793e-5
1.237,   2.795e-5
1.238,   2.798e-5
1.239,   2.794e-5
1.240,   2.793e-5
1.241,   2.796e-5
1.242,   2.792e-5
1.243,   2.801e-5
1.244,   2.799e-5
1.245,   2.797e-5
1.246,   2.806e-5
1.247,   2.805e-5
1.248,   2.803e-5
1.249,   2.806e-5
1.250,   2.806e-5
1.251,   2.804e-5
1.252,   2.811e-5
1.253,   2.809e-5
1.254,   2.814e-5
1.255,   2.817e-5
1.256,   2.813e-5
1.257,   2.817e-5
1.258,   2.814e-5
1.259,   2.821e-5
1.260,   2.828e-5
1.261,   2.823e-5
1.262,   2.828e-5
1.263,   2.829e-5
1.264,   2.829e-5
1.265,   2.837e-5
1.266,   2.839e-5
1.267,   2.838e-5
1.268,   2.843e-5
1.269,   2.840e-5
1.270,   2.849e-5
1.271,   2.845e-5
1.272,   2.848e-5
1.273,   2.859e-5
1.274,   2.858e-5
1.275,   2.857e-5
1.276,   2.864e-5
1.277,   2.865e-5
1.278,   2.877e-5
1.279,   2.874e-5
1.280,   2.880e-5
1.281,   2.886e-5
1.282,   2.882e-5
1.283,   2.884e-5
1.284,   2.892e-5
1.285,   2.891e-5
1.286,   2.896e-5
1.287,   2.900e-5
1.288,   2.902e-5
1.289,   2.910e-5
1.290,   2.908e-5
1.291,   2.912e-5
1.292,   2.921e-5
1.293,   2.922e-5
1.294,   2.933e-5
1.295,   2.934e-5
1.296,   2.934e-5
1.297,   2.939e-5
1.298,   2.944e-5
1.299,   2.953e-5
1.300,   2.956e-5
1.301,   2.961e-5
1.302,   2.970e-5
1.303,   2.972e-5
1.304,   2.975e-5
1.305,   2.977e-5
1.306,   2.985e-5
1.307,   2.990e-5
1.308,   2.995e-5
1.309,   2.993e-5
1.310,   3.002e-5
1.311,   3.009e-5
1.312,   3.010e-5
1.313,   3.020e-5
1.314,   3.021e-5
1.315,   3.028e-5
1.316,   3.033e-5
1.317,   3.039e-5
1.318,   3.046e-5
1.319,   3.047e-5
1.320,   3.057e-5
1.321,   3.062e-5
1.322,   3.065e-5
1.323,   3.074e-5
1.324,   3.084e-5
1.325,   3.085e-5
1.326,   3.095e-5
1.327,   3.105e-5
1.328,   3.114e-5
1.329,   3.122e-5
1.330,   3.125e-5
1.331,   3.133e-5
1.332,   3.142e-5
1.333,   3.148e-5
1.334,   3.162e-5
1.335,   3.167e-5
1.336,   3.180e-5
1.337,   3.185e-5
1.338,   3.192e-5
1.339,   3.202e-5
1.340,   3.215e-5
1.341,   3.222e-5
1.342,   3.236e-5
1.343,   3.242e-5
1.344,   3.252e-5
1.345,   3.266e-5
1.346,   3.278e-5
1.347,   3.295e-5
1.348,   3.311e-5
1.349,   3.326e-5
1.350,   3.338e-5
1.351,   3.353e-5
1.352,   3.362e-5
1.353,   3.384e-5
1.354,   3.399e-5
1.355,   3.412e-5
1.356,   3.430e-5
1.357,   3.444e-5
1.358,   3.471e-5
1.359,   3.485e-5
1.360,   3.509e-5
1.361,   3.538e-5
1.362,   3.559e-5
1.363,   3.582e-5
1.364,   3.605e-5
1.365,   3.625e-5
1.366,   3.651e-5
1.367,   3.677e-5
1.368,   3.704e-5
1.369,   3.736e-5
1.370,   3.763e-5
1.371,   3.794e-5
1.372,   3.828e-5
1.373,   3.857e-5
1.374,   3.901e-5
1.375,   3.937e-5
1.376,   3.975e-5
1.377,   4.015e-5
1.378,   4.057e-5
1.379,   4.107e-5
1.380,   4.157e-5
1.381,   4.210e-5
1.382,   4.264e-5
1.383,   4.311e-5
1.384,   4.376e-5
1.385,   4.441e-5
1.386,   4.500e-5
1.387,   4.574e-5
1.388,   4.646e-5
1.389,   4.718e-5
1.390,   4.807e-5
1.391,   4.886e-5
1.392,   4.969e-5
1.393,   5.069e-5
1.394,   5.164e-5
1.395,   5.262e-5
1.396,   5.360e-5
1.397,   5.472e-5
1.398,   5.594e-5
1.399,   5.719e-5
1.400,   5.851e-5
1.401,   5.993e-5
1.402,   6.134e-5
1.403,   6.285e-5
1.404,   6.447e-5
1.405,   6.614e-5
1.406,   6.790e-5
1.407,   6.976e-5
1.408,   7.169e-5
1.409,   7.374e-5
1.410,   7.593e-5
1.411,   7.812e-5
1.412,   8.047e-5
1.413,   8.298e-5
1.414,   8.564e-5
1.415,   8.823e-5
1.416,   9.109e-5
1.417,   9.411e-5
1.418,   9.715e-5
1.419,   1.004e-4
1.420,   1.037e-4
1.421,   1.071e-4
1.422,   1.109e-4
1.423,   1.148e-4
1.424,   1.188e-4
1.425,   1.232e-4
1.426,   1.279e-4
1.427,   1.326e-4
1.428,   1.374e-4
1.429,   1.427e-4
1.430,   1.491e-4
1.431,   1.540e-4
1.432,   1.595e-4
1.433,   1.653e-4
1.434,   1.713e-4
1.435,   1.775e-4
1.436,   1.840e-4
1.437,   1.909e-4
1.438,   1.979e-4
1.439,   2.052e-4
1.440,   2.128e-4
1.441,   2.208e-4
1.442,   2.289e-4
1.443,   2.377e-4
1.444,   2.464e-4
1.445,   2.555e-4
1.446,   2.650e-4
1.447,   2.747e-4
1.448,   2.847e-4
1.449,   2.953e-4
1.450,   3.064e-4
1.451,   3.173e-4
1.452,   3.289e-4
1.453,   3.406e-4
1.454,   3.523e-4
1.455,   3.634e-4
1.456,   3.793e-4
1.457,   3.936e-4
1.458,   4.077e-4
1.459,   4.228e-4
1.460,   4.377e-4
1.461,   4.528e-4
1.462,   4.690e-4
1.463,   4.845e-4
1.464,   4.974e-4
1.465,   5.139e-4
1.466,   5.314e-4
1.467,   5.492e-4
1.468,   5.672e-4
1.469,   5.869e-4
1.470,   6.089e-4
1.471,   6.296e-4
1.472,   6.503e-4
1.473,   6.718e-4
1.474,   6.963e-4
1.475,   7.200e-4
1.476,   7.426e-4
1.477,   7.656e-4
1.478,   7.902e-4
1.479,   8.146e-4
1.480,   8.397e-4
1.481,   8.655e-4
1.482,   8.909e-4
1.483,   9.185e-4
1.484,   9.456e-4
1.485,   9.746e-4
1.486,   1.006e-3
1.487,   1.036e-3
1.488,   1.067e-3
1.489,   1.098e-3
1.490,   1.129e-3
1.491,   1.158e-3
1.492,   1.189e-3
1.493,   1.219e-3
1.494,   1.253e-3
1.495,   1.287e-3
1.496,   1.322e-3
1.497,   1.356e-3
1.498,   1.393e-3
1.499,   1.431e-3
1.500,   1.471e-3
1.501,   1.511e-3
1.502,   1.549e-3
1.503,   1.587e-3
1.504,   1.625e-3
1.505,   1.664e-3
1.506,   1.704e-3
1.507,   1.748e-3
1.508,   1.791e-3
1.509,   1.833e-3
1.510,   1.878e-3
1.511,   1.929e-3
1.512,   1.978e-3
1.513,   2.026e-3
1.514,   2.067e-3
1.515,   2.116e-3
1.516,   2.165e-3
1.517,   2.209e-3
1.518,   2.255e-3
1.519,   2.300e-3
1.520,   2.349e-3
1.521,   2.397e-3
1.522,   2.453e-3
1.523,   2.504e-3
1.524,   2.552e-3
1.525,   2.603e-3
1.526,   2.654e-3
1.527,   2.703e-3
1.528,   2.745e-3
1.529,   2.796e-3
1.530,   2.847e-3
1.531,   2.904e-3
1.532,   2.959e-3
1.533,   3.011e-3
1.534,   3.070e-3
1.535,   3.127e-3
1.536,   3.181e-3
1.537,   3.226e-3
1.538,   3.276e-3
1.539,   3.335e-3
1.540,   3.388e-3
1.541,   3.444e-3
1.542,   3.501e-3
1.543,   3.556e-3
1.544,   3.605e-3
1.545,   3.660e-3
1.546,   3.720e-3
1.547,   3.775e-3
1.548,   3.831e-3
1.549,   3.888e-3
1.550,   3.940e-3
1.551,   4.003e-3
1.552,   4.066e-3
1.553,   4.127e-3
1.554,   4.185e-3
1.555,   4.255e-3
1.556,   4.318e-3
1.557,   4.377e-3
1.558,   4.424e-3
1.559,   4.478e-3
1.560,   4.535e-3
1.561,   4.597e-3
1.562,   4.656e-3
1.563,   4.715e-3
1.564,   4.776e-3
1.565,   4.833e-3
1.566,   4.899e-3
1.567,   4.993e-3
1.568,   5.066e-3
1.569,   5.130e-3
1.570,   5.186e-3
1.571,   5.249e-3
1.572,   5.309e-3
1.573,   5.363e-3
1.574,   5.428e-3
1.575,   5.502e-3
1.576,   5.556e-3
1.577,   5.610e-3
1.578,   5.682e-3
1.579,   5.741e-3
1.580,   5.793e-3
1.581,   5.847e-3
1.582,   5.907e-3
1.583,   5.957e-3
1.584,   6.031e-3
1.585,   6.108e-3
1.586,   6.159e-3
1.587,   6.219e-3
1.588,   6.277e-3
1.589,   6.329e-3
1.590,   6.389e-3
1.591,   6.445e-3
1.592,   6.522e-3
1.593,   6.596e-3
1.594,   6.667e-3
1.595,   6.748e-3
1.596,   6.803e-3
1.597,   6.860e-3
1.598,   6.921e-3
1.599,   6.981e-3
1.600,   7.045e-3
1.601,   7.118e-3
1.602,   7.181e-3
1.603,   7.238e-3
1.604,   7.299e-3
1.605,   7.357e-3
1.606,   7.419e-3
1.607,   7.468e-3
1.608,   7.522e-3
1.609,   7.594e-3
1.610,   7.691e-3
1.611,   7.748e-3
1.612,   7.807e-3
1.613,   7.862e-3
1.614,   7.920e-3
1.615,   7.997e-3
1.616,   8.119e-3
1.617,   8.343e-3
1.618,   8.390e-3
1.619,   8.430e-3
1.620,   8.477e-3
1.621,   8.559e-3
1.622,   8.627e-3
1.623,   8.684e-3
1.624,   8.751e-3
1.625,   8.794e-3
1.626,   8.846e-3
1.627,   8.906e-3
1.628,   8.961e-3
1.629,   9.059e-3
1.630,   9.107e-3
1.631,   9.160e-3
1.632,   9.232e-3
1.633,   9.269e-3
1.634,   9.293e-3
1.635,   9.349e-3
1.636,   9.400e-3
1.637,   9.475e-3
1.638,   9.570e-3
1.639,   9.643e-3
1.640,   9.699e-3
1.641,   9.741e-3
1.642,   9.826e-3
1.643,   9.887e-3
1.644,   9.932e-3
1.645,   9.977e-3
1.646,   1.002e-2
1.647,   1.003e-2
1.648,   1.007e-2
1.649,   1.007e-2
1.650,   1.007e-2
1.651,   1.007e-2
1.652,   1.007e-2
1.653,   1.007e-2
1.654,   1.007e-2
1.655,   1.007e-2
1.656,   1.007e-2
1.657,   1.007e-2
1.658,   1.007e-2
1.659,   1.007e-2