File: Experimental Records, Raw Data, and Supplementary Notes and Figures/batch2/final400/B2_BEST_400#10_Full-251mV.txt
Jan. 18, 2023   14:04:53
Linear Sweep Voltammetry
File: d:\current work\al_oer\electrochemical test data\batch 2\400\B2_BEST_400#10_Full-251mV.txt
Data Source:  Experiment
Instrument Model:  CHI660E
Header:
Note:

Init E (V) = 1.098

Final E (V) = 1.670

Scan Rate (V/s) = 0.010
Sample Interval (V) = 0.001
Quiet Time (sec) = 2
Sensitivity (A/V) = 0.001
Comp R (ohm) = 4.9

Results:

Channel 1:

Potential/V, Current/A
1.098,   1.763e-4
1.099,   1.679e-4
1.100,   1.592e-4
1.101,   1.510e-4
1.102,   1.439e-4
1.103,   1.372e-4
1.104,   1.311e-4
1.105,   1.259e-4
1.106,   1.209e-4
1.107,   1.164e-4
1.108,   1.122e-4
1.109,   1.083e-4
1.110,   1.052e-4
1.111,   1.024e-4
1.112,   9.935e-5
1.113,   9.658e-5
1.114,   9.389e-5
1.115,   9.157e-5
1.116,   8.944e-5
1.117,   8.732e-5
1.118,   8.553e-5
1.119,   8.368e-5
1.120,   8.195e-5
1.121,   8.035e-5
1.122,   7.889e-5
1.123,   7.756e-5
1.124,   7.626e-5
1.125,   7.485e-5
1.126,   7.368e-5
1.127,   7.246e-5
1.128,   7.149e-5
1.129,   7.052e-5
1.130,   6.953e-5
1.131,   6.865e-5
1.132,   6.783e-5
1.133,   6.699e-5
1.134,   6.615e-5
1.135,   6.533e-5
1.136,   6.461e-5
1.137,   6.398e-5
1.138,   6.338e-5
1.139,   6.273e-5
1.140,   6.210e-5
1.141,   6.146e-5
1.142,   6.102e-5
1.143,   6.053e-5
1.144,   6.014e-5
1.145,   5.966e-5
1.146,   5.913e-5
1.147,   5.869e-5
1.148,   5.826e-5
1.149,   5.784e-5
1.150,   5.751e-5
1.151,   5.708e-5
1.152,   5.674e-5
1.153,   5.644e-5
1.154,   5.604e-5
1.155,   5.567e-5
1.156,   5.543e-5
1.157,   5.517e-5
1.158,   5.488e-5
1.159,   5.467e-5
1.160,   5.444e-5
1.161,   5.424e-5
1.162,   5.397e-5
1.163,   5.373e-5
1.164,   5.346e-5
1.165,   5.328e-5
1.166,   5.307e-5
1.167,   5.284e-5
1.168,   5.262e-5
1.169,   5.253e-5
1.170,   5.234e-5
1.171,   5.223e-5
1.172,   5.206e-5
1.173,   5.186e-5
1.174,   5.175e-5
1.175,   5.157e-5
1.176,   5.145e-5
1.177,   5.136e-5
1.178,   5.124e-5
1.179,   5.113e-5
1.180,   5.098e-5
1.181,   5.085e-5
1.182,   5.078e-5
1.183,   5.069e-5
1.184,   5.056e-5
1.185,   5.049e-5
1.186,   5.041e-5
1.187,   5.032e-5
1.188,   5.026e-5
1.189,   5.018e-5
1.190,   5.012e-5
1.191,   5.004e-5
1.192,   5.002e-5
1.193,   4.991e-5
1.194,   4.984e-5
1.195,   4.981e-5
1.196,   4.974e-5
1.197,   4.964e-5
1.198,   4.967e-5
1.199,   4.961e-5
1.200,   4.959e-5
1.201,   4.955e-5
1.202,   4.951e-5
1.203,   4.952e-5
1.204,   4.957e-5
1.205,   4.949e-5
1.206,   4.952e-5
1.207,   4.949e-5
1.208,   4.949e-5
1.209,   4.955e-5
1.210,   4.950e-5
1.211,   4.946e-5
1.212,   4.948e-5
1.213,   4.943e-5
1.214,   4.942e-5
1.215,   4.935e-5
1.216,   4.932e-5
1.217,   4.933e-5
1.218,   4.929e-5
1.219,   4.934e-5
1.220,   4.935e-5
1.221,   4.942e-5
1.222,   4.938e-5
1.223,   4.941e-5
1.224,   4.951e-5
1.225,   4.950e-5
1.226,   4.940e-5
1.227,   4.943e-5
1.228,   4.949e-5
1.229,   4.942e-5
1.230,   4.944e-5
1.231,   4.949e-5
1.232,   4.949e-5
1.233,   4.958e-5
1.234,   4.955e-5
1.235,   4.963e-5
1.236,   4.968e-5
1.237,   4.968e-5
1.238,   4.970e-5
1.239,   4.979e-5
1.240,   4.988e-5
1.241,   4.998e-5
1.242,   4.995e-5
1.243,   4.994e-5
1.244,   4.994e-5
1.245,   4.995e-5
1.246,   5.002e-5
1.247,   5.006e-5
1.248,   5.008e-5
1.249,   5.008e-5
1.250,   5.006e-5
1.251,   5.012e-5
1.252,   5.014e-5
1.253,   5.012e-5
1.254,   5.026e-5
1.255,   5.029e-5
1.256,   5.034e-5
1.257,   5.043e-5
1.258,   5.045e-5
1.259,   5.057e-5
1.260,   5.057e-5
1.261,   5.056e-5
1.262,   5.071e-5
1.263,   5.069e-5
1.264,   5.073e-5
1.265,   5.077e-5
1.266,   5.079e-5
1.267,   5.088e-5
1.268,   5.094e-5
1.269,   5.094e-5
1.270,   5.101e-5
1.271,   5.109e-5
1.272,   5.112e-5
1.273,   5.116e-5
1.274,   5.119e-5
1.275,   5.132e-5
1.276,   5.137e-5
1.277,   5.133e-5
1.278,   5.141e-5
1.279,   5.142e-5
1.280,   5.144e-5
1.281,   5.150e-5
1.282,   5.155e-5
1.283,   5.164e-5
1.284,   5.169e-5
1.285,   5.176e-5
1.286,   5.194e-5
1.287,   5.199e-5
1.288,   5.201e-5
1.289,   5.209e-5
1.290,   5.212e-5
1.291,   5.217e-5
1.292,   5.226e-5
1.293,   5.230e-5
1.294,   5.243e-5
1.295,   5.247e-5
1.296,   5.249e-5
1.297,   5.267e-5
1.298,   5.272e-5
1.299,   5.280e-5
1.300,   5.288e-5
1.301,   5.290e-5
1.302,   5.299e-5
1.303,   5.312e-5
1.304,   5.315e-5
1.305,   5.331e-5
1.306,   5.334e-5
1.307,   5.339e-5
1.308,   5.348e-5
1.309,   5.357e-5
1.310,   5.367e-5
1.311,   5.372e-5
1.312,   5.383e-5
1.313,   5.391e-5
1.314,   5.396e-5
1.315,   5.412e-5
1.316,   5.425e-5
1.317,   5.428e-5
1.318,   5.439e-5
1.319,   5.454e-5
1.320,   5.464e-5
1.321,   5.476e-5
1.322,   5.480e-5
1.323,   5.497e-5
1.324,   5.516e-5
1.325,   5.523e-5
1.326,   5.529e-5
1.327,   5.533e-5
1.328,   5.541e-5
1.329,   5.564e-5
1.330,   5.571e-5
1.331,   5.585e-5
1.332,   5.603e-5
1.333,   5.609e-5
1.334,   5.623e-5
1.335,   5.639e-5
1.336,   5.651e-5
1.337,   5.677e-5
1.338,   5.691e-5
1.339,   5.703e-5
1.340,   5.713e-5
1.341,   5.733e-5
1.342,   5.758e-5
1.343,   5.766e-5
1.344,   5.779e-5
1.345,   5.798e-5
1.346,   5.811e-5
1.347,   5.833e-5
1.348,   5.848e-5
1.349,   5.865e-5
1.350,   5.893e-5
1.351,   5.908e-5
1.352,   5.932e-5
1.353,   5.959e-5
1.354,   5.978e-5
1.355,   6.003e-5
1.356,   6.033e-5
1.357,   6.049e-5
1.358,   6.073e-5
1.359,   6.104e-5
1.360,   6.133e-5
1.361,   6.179e-5
1.362,   6.213e-5
1.363,   6.237e-5
1.364,   6.276e-5
1.365,   6.309e-5
1.366,   6.354e-5
1.367,   6.400e-5
1.368,   6.459e-5
1.369,   6.504e-5
1.370,   6.554e-5
1.371,   6.618e-5
1.372,   6.678e-5
1.373,   6.734e-5
1.374,   6.802e-5
1.375,   6.872e-5
1.376,   6.957e-5
1.377,   7.041e-5
1.378,   7.119e-5
1.379,   7.211e-5
1.380,   7.305e-5
1.381,   7.406e-5
1.382,   7.521e-5
1.383,   7.635e-5
1.384,   7.771e-5
1.385,   7.890e-5
1.386,   8.017e-5
1.387,   8.171e-5
1.388,   8.331e-5
1.389,   8.483e-5
1.390,   8.658e-5
1.391,   8.840e-5
1.392,   9.047e-5
1.393,   9.267e-5
1.394,   9.492e-5
1.395,   9.719e-5
1.396,   9.951e-5
1.397,   1.021e-4
1.398,   1.050e-4
1.399,   1.077e-4
1.400,   1.108e-4
1.401,   1.140e-4
1.402,   1.175e-4
1.403,   1.210e-4
1.404,   1.247e-4
1.405,   1.286e-4
1.406,   1.328e-4
1.407,   1.371e-4
1.408,   1.417e-4
1.409,   1.465e-4
1.410,   1.516e-4
1.411,   1.572e-4
1.412,   1.630e-4
1.413,   1.691e-4
1.414,   1.755e-4
1.415,   1.822e-4
1.416,   1.891e-4
1.417,   1.968e-4
1.418,   2.057e-4
1.419,   2.144e-4
1.420,   2.231e-4
1.421,   2.322e-4
1.422,   2.418e-4
1.423,   2.517e-4
1.424,   2.619e-4
1.425,   2.727e-4
1.426,   2.838e-4
1.427,   2.958e-4
1.428,   3.086e-4
1.429,   3.218e-4
1.430,   3.352e-4
1.431,   3.489e-4
1.432,   3.631e-4
1.433,   3.784e-4
1.434,   3.939e-4
1.435,   4.100e-4
1.436,   4.262e-4
1.437,   4.429e-4
1.438,   4.612e-4
1.439,   4.799e-4
1.440,   4.995e-4
1.441,   5.201e-4
1.442,   5.395e-4
1.443,   5.612e-4
1.444,   5.830e-4
1.445,   6.061e-4
1.446,   6.298e-4
1.447,   6.540e-4
1.448,   6.789e-4
1.449,   7.029e-4
1.450,   7.297e-4
1.451,   7.573e-4
1.452,   7.849e-4
1.453,   8.123e-4
1.454,   8.409e-4
1.455,   8.711e-4
1.456,   9.022e-4
1.457,   9.333e-4
1.458,   9.654e-4
1.459,   9.969e-4
1.460,   1.029e-3
1.461,   1.066e-3
1.462,   1.104e-3
1.463,   1.140e-3
1.464,   1.179e-3
1.465,   1.219e-3
1.466,   1.256e-3
1.467,   1.294e-3
1.468,   1.334e-3
1.469,   1.377e-3
1.470,   1.421e-3
1.471,   1.464e-3
1.472,   1.506e-3
1.473,   1.547e-3
1.474,   1.593e-3
1.475,   1.636e-3
1.476,   1.686e-3
1.477,   1.734e-3
1.478,   1.780e-3
1.479,   1.825e-3
1.480,   1.874e-3
1.481,   1.926e-3
1.482,   1.977e-3
1.483,   2.024e-3
1.484,   2.073e-3
1.485,   2.128e-3
1.486,   2.180e-3
1.487,   2.226e-3
1.488,   2.276e-3
1.489,   2.336e-3
1.490,   2.391e-3
1.491,   2.438e-3
1.492,   2.492e-3
1.493,   2.549e-3
1.494,   2.597e-3
1.495,   2.654e-3
1.496,   2.709e-3
1.497,   2.763e-3
1.498,   2.818e-3
1.499,   2.873e-3
1.500,   2.923e-3
1.501,   2.980e-3
1.502,   3.035e-3
1.503,   3.086e-3
1.504,   3.136e-3
1.505,   3.190e-3
1.506,   3.239e-3
1.507,   3.291e-3
1.508,   3.339e-3
1.509,   3.387e-3
1.510,   3.425e-3
1.511,   3.484e-3
1.512,   3.541e-3
1.513,   3.591e-3
1.514,   3.637e-3
1.515,   3.684e-3
1.516,   3.726e-3
1.517,   3.771e-3
1.518,   3.814e-3
1.519,   3.852e-3
1.520,   3.895e-3
1.521,   3.931e-3
1.522,   3.979e-3
1.523,   4.019e-3
1.524,   4.042e-3
1.525,   4.086e-3
1.526,   4.121e-3
1.527,   4.157e-3
1.528,   4.195e-3
1.529,   4.227e-3
1.530,   4.254e-3
1.531,   4.280e-3
1.532,   4.313e-3
1.533,   4.335e-3
1.534,   4.369e-3
1.535,   4.403e-3
1.536,   4.429e-3
1.537,   4.441e-3
1.538,   4.467e-3
1.539,   4.492e-3
1.540,   4.519e-3
1.541,   4.546e-3
1.542,   4.562e-3
1.543,   4.576e-3
1.544,   4.600e-3
1.545,   4.618e-3
1.546,   4.633e-3
1.547,   4.657e-3
1.548,   4.674e-3
1.549,   4.689e-3
1.550,   4.700e-3
1.551,   4.729e-3
1.552,   4.745e-3
1.553,   4.762e-3
1.554,   4.773e-3
1.555,   4.783e-3
1.556,   4.787e-3
1.557,   4.812e-3
1.558,   4.833e-3
1.559,   4.842e-3
1.560,   4.852e-3
1.561,   4.868e-3
1.562,   4.869e-3
1.563,   4.884e-3
1.564,   4.893e-3
1.565,   4.907e-3
1.566,   4.911e-3
1.567,   4.934e-3
1.568,   4.959e-3
1.569,   4.969e-3
1.570,   4.982e-3
1.571,   4.987e-3
1.572,   4.998e-3
1.573,   5.002e-3
1.574,   5.005e-3
1.575,   5.027e-3
1.576,   5.029e-3
1.577,   5.045e-3
1.578,   5.057e-3
1.579,   5.062e-3
1.580,   5.080e-3
1.581,   5.083e-3
1.582,   5.100e-3
1.583,   5.109e-3
1.584,   5.117e-3
1.585,   5.128e-3
1.586,   5.129e-3
1.587,   5.146e-3
1.588,   5.163e-3
1.589,   5.176e-3
1.590,   5.192e-3
1.591,   5.195e-3
1.592,   5.213e-3
1.593,   5.220e-3
1.594,   5.227e-3
1.595,   5.243e-3
1.596,   5.253e-3
1.597,   5.261e-3
1.598,   5.267e-3
1.599,   5.270e-3
1.600,   5.286e-3
1.601,   5.299e-3
1.602,   5.304e-3
1.603,   5.311e-3
1.604,   5.326e-3
1.605,   5.342e-3
1.606,   5.365e-3
1.607,   5.387e-3
1.608,   5.394e-3
1.609,   5.397e-3
1.610,   5.403e-3
1.611,   5.419e-3
1.612,   5.421e-3
1.613,   5.428e-3
1.614,   5.444e-3
1.615,   5.448e-3
1.616,   5.453e-3
1.617,   5.459e-3
1.618,   5.470e-3
1.619,   5.479e-3
1.620,   5.487e-3
1.621,   5.496e-3
1.622,   5.493e-3
1.623,   5.522e-3
1.624,   5.534e-3
1.625,   5.535e-3
1.626,   5.539e-3
1.627,   5.545e-3
1.628,   5.560e-3
1.629,   5.575e-3
1.630,   5.574e-3
1.631,   5.579e-3
1.632,   5.591e-3
1.633,   5.595e-3
1.634,   5.599e-3
1.635,   5.610e-3
1.636,   5.623e-3
1.637,   5.627e-3
1.638,   5.635e-3
1.639,   5.644e-3
1.640,   5.644e-3
1.641,   5.647e-3
1.642,   5.656e-3
1.643,   5.651e-3
1.644,   5.667e-3
1.645,   5.675e-3
1.646,   5.680e-3
1.647,   5.676e-3
1.648,   5.678e-3
1.649,   5.684e-3
1.650,   5.685e-3
1.651,   5.691e-3
1.652,   5.688e-3
1.653,   5.687e-3
1.654,   5.693e-3
1.655,   5.703e-3
1.656,   5.699e-3
1.657,   5.693e-3
1.658,   5.695e-3
1.659,   5.691e-3
1.660,   5.698e-3
1.661,   5.707e-3
1.662,   5.697e-3
1.663,   5.698e-3
1.664,   5.696e-3
1.665,   5.692e-3
1.666,   5.678e-3
1.667,   5.687e-3
1.668,   5.675e-3
1.669,   5.660e-3
1.670,   5.655e-3