File: Experimental Records, Raw Data, and Supplementary Notes and Figures/batch2/final400/B2_BEST_400#19_Full-241mV.txt
Jan. 18, 2023   15:05:33
Linear Sweep Voltammetry
File: d:\current work\al_oer\electrochemical test data\batch 2\400\B2_BEST_400#19_Full-241mV.txt
Data Source:  Experiment
Instrument Model:  CHI660E
Header:
Note:

Init E (V) = 1.099

Final E (V) = 1.532

Scan Rate (V/s) = 0.010
Sample Interval (V) = 0.001
Quiet Time (sec) = 2
Sensitivity (A/V) = 0.001
Comp R (ohm) = 5.6

Results:

Channel 1:

Potential/V, Current/A
1.099,   1.061e-4
1.100,   1.183e-4
1.101,   1.149e-4
1.102,   1.100e-4
1.103,   1.059e-4
1.104,   1.024e-4
1.105,   9.890e-5
1.106,   9.603e-5
1.107,   9.333e-5
1.108,   9.105e-5
1.109,   8.879e-5
1.110,   8.681e-5
1.111,   8.518e-5
1.112,   8.348e-5
1.113,   8.209e-5
1.114,   8.101e-5
1.115,   7.941e-5
1.116,   7.862e-5
1.117,   7.762e-5
1.118,   7.642e-5
1.119,   7.594e-5
1.120,   7.505e-5
1.121,   7.408e-5
1.122,   7.368e-5
1.123,   7.270e-5
1.124,   7.219e-5
1.125,   7.198e-5
1.126,   7.112e-5
1.127,   7.065e-5
1.128,   7.022e-5
1.129,   6.958e-5
1.130,   6.930e-5
1.131,   6.882e-5
1.132,   6.844e-5
1.133,   6.826e-5
1.134,   6.774e-5
1.135,   6.751e-5
1.136,   6.722e-5
1.137,   6.703e-5
1.138,   6.678e-5
1.139,   6.646e-5
1.140,   6.634e-5
1.141,   6.613e-5
1.142,   6.580e-5
1.143,   6.578e-5
1.144,   6.545e-5
1.145,   6.545e-5
1.146,   6.547e-5
1.147,   6.493e-5
1.148,   6.505e-5
1.149,   6.490e-5
1.150,   6.450e-5
1.151,   6.476e-5
1.152,   6.445e-5
1.153,   6.427e-5
1.154,   6.454e-5
1.155,   6.403e-5
1.156,   6.402e-5
1.157,   6.425e-5
1.158,   6.393e-5
1.159,   6.401e-5
1.160,   6.389e-5
1.161,   6.370e-5
1.162,   6.393e-5
1.163,   6.375e-5
1.164,   6.362e-5
1.165,   6.378e-5
1.166,   6.358e-5
1.167,   6.349e-5
1.168,   6.368e-5
1.169,   6.355e-5
1.170,   6.356e-5
1.171,   6.361e-5
1.172,   6.355e-5
1.173,   6.350e-5
1.174,   6.350e-5
1.175,   6.356e-5
1.176,   6.347e-5
1.177,   6.355e-5
1.178,   6.366e-5
1.179,   6.337e-5
1.180,   6.366e-5
1.181,   6.365e-5
1.182,   6.338e-5
1.183,   6.374e-5
1.184,   6.369e-5
1.185,   6.350e-5
1.186,   6.390e-5
1.187,   6.356e-5
1.188,   6.363e-5
1.189,   6.408e-5
1.190,   6.365e-5
1.191,   6.388e-5
1.192,   6.396e-5
1.193,   6.381e-5
1.194,   6.410e-5
1.195,   6.404e-5
1.196,   6.415e-5
1.197,   6.441e-5
1.198,   6.424e-5
1.199,   6.423e-5
1.200,   6.433e-5
1.201,   6.430e-5
1.202,   6.441e-5
1.203,   6.438e-5
1.204,   6.453e-5
1.205,   6.460e-5
1.206,   6.456e-5
1.207,   6.481e-5
1.208,   6.466e-5
1.209,   6.496e-5
1.210,   6.500e-5
1.211,   6.463e-5
1.212,   6.500e-5
1.213,   6.498e-5
1.214,   6.481e-5
1.215,   6.537e-5
1.216,   6.515e-5
1.217,   6.527e-5
1.218,   6.556e-5
1.219,   6.505e-5
1.220,   6.546e-5
1.221,   6.563e-5
1.222,   6.559e-5
1.223,   6.578e-5
1.224,   6.575e-5
1.225,   6.547e-5
1.226,   6.602e-5
1.227,   6.579e-5
1.228,   6.587e-5
1.229,   6.625e-5
1.230,   6.579e-5
1.231,   6.613e-5
1.232,   6.628e-5
1.233,   6.607e-5
1.234,   6.630e-5
1.235,   6.639e-5
1.236,   6.638e-5
1.237,   6.653e-5
1.238,   6.643e-5
1.239,   6.653e-5
1.240,   6.652e-5
1.241,   6.659e-5
1.242,   6.682e-5
1.243,   6.662e-5
1.244,   6.684e-5
1.245,   6.675e-5
1.246,   6.672e-5
1.247,   6.722e-5
1.248,   6.690e-5
1.249,   6.695e-5
1.250,   6.724e-5
1.251,   6.687e-5
1.252,   6.707e-5
1.253,   6.727e-5
1.254,   6.706e-5
1.255,   6.735e-5
1.256,   6.745e-5
1.257,   6.712e-5
1.258,   6.749e-5
1.259,   6.753e-5
1.260,   6.739e-5
1.261,   6.772e-5
1.262,   6.762e-5
1.263,   6.763e-5
1.264,   6.770e-5
1.265,   6.775e-5
1.266,   6.779e-5
1.267,   6.770e-5
1.268,   6.792e-5
1.269,   6.788e-5
1.270,   6.785e-5
1.271,   6.810e-5
1.272,   6.780e-5
1.273,   6.825e-5
1.274,   6.837e-5
1.275,   6.791e-5
1.276,   6.824e-5
1.277,   6.838e-5
1.278,   6.801e-5
1.279,   6.852e-5
1.280,   6.833e-5
1.281,   6.815e-5
1.282,   6.862e-5
1.283,   6.827e-5
1.284,   6.840e-5
1.285,   6.872e-5
1.286,   6.846e-5
1.287,   6.874e-5
1.288,   6.884e-5
1.289,   6.857e-5
1.290,   6.888e-5
1.291,   6.889e-5
1.292,   6.893e-5
1.293,   6.905e-5
1.294,   6.896e-5
1.295,   6.892e-5
1.296,   6.916e-5
1.297,   6.920e-5
1.298,   6.915e-5
1.299,   6.920e-5
1.300,   6.939e-5
1.301,   6.942e-5
1.302,   6.933e-5
1.303,   6.958e-5
1.304,   6.939e-5
1.305,   6.961e-5
1.306,   6.989e-5
1.307,   6.944e-5
1.308,   6.967e-5
1.309,   6.997e-5
1.310,   6.965e-5
1.311,   7.014e-5
1.312,   7.008e-5
1.313,   6.972e-5
1.314,   7.032e-5
1.315,   6.998e-5
1.316,   7.009e-5
1.317,   7.048e-5
1.318,   7.030e-5
1.319,   7.049e-5
1.320,   7.058e-5
1.321,   7.034e-5
1.322,   7.071e-5
1.323,   7.066e-5
1.324,   7.092e-5
1.325,   7.097e-5
1.326,   7.088e-5
1.327,   7.110e-5
1.328,   7.106e-5
1.329,   7.119e-5
1.330,   7.128e-5
1.331,   7.140e-5
1.332,   7.149e-5
1.333,   7.161e-5
1.334,   7.160e-5
1.335,   7.195e-5
1.336,   7.178e-5
1.337,   7.207e-5
1.338,   7.238e-5
1.339,   7.202e-5
1.340,   7.242e-5
1.341,   7.259e-5
1.342,   7.243e-5
1.343,   7.292e-5
1.344,   7.308e-5
1.345,   7.295e-5
1.346,   7.348e-5
1.347,   7.338e-5
1.348,   7.366e-5
1.349,   7.400e-5
1.350,   7.398e-5
1.351,   7.421e-5
1.352,   7.443e-5
1.353,   7.468e-5
1.354,   7.502e-5
1.355,   7.514e-5
1.356,   7.543e-5
1.357,   7.575e-5
1.358,   7.597e-5
1.359,   7.637e-5
1.360,   7.639e-5
1.361,   7.695e-5
1.362,   7.731e-5
1.363,   7.745e-5
1.364,   7.800e-5
1.365,   7.831e-5
1.366,   7.861e-5
1.367,   7.928e-5
1.368,   7.949e-5
1.369,   8.014e-5
1.370,   8.081e-5
1.371,   8.074e-5
1.372,   8.159e-5
1.373,   8.233e-5
1.374,   8.246e-5
1.375,   8.361e-5
1.376,   8.427e-5
1.377,   8.471e-5
1.378,   8.583e-5
1.379,   8.619e-5
1.380,   8.697e-5
1.381,   8.836e-5
1.382,   8.887e-5
1.383,   8.994e-5
1.384,   9.101e-5
1.385,   9.203e-5
1.386,   9.321e-5
1.387,   9.442e-5
1.388,   9.574e-5
1.389,   9.721e-5
1.390,   9.861e-5
1.391,   1.000e-4
1.392,   1.016e-4
1.393,   1.033e-4
1.394,   1.053e-4
1.395,   1.070e-4
1.396,   1.093e-4
1.397,   1.115e-4
1.398,   1.133e-4
1.399,   1.163e-4
1.400,   1.185e-4
1.401,   1.215e-4
1.402,   1.245e-4
1.403,   1.271e-4
1.404,   1.305e-4
1.405,   1.343e-4
1.406,   1.375e-4
1.407,   1.415e-4
1.408,   1.459e-4
1.409,   1.496e-4
1.410,   1.545e-4
1.411,   1.591e-4
1.412,   1.641e-4
1.413,   1.698e-4
1.414,   1.750e-4
1.415,   1.811e-4
1.416,   1.876e-4
1.417,   1.942e-4
1.418,   2.012e-4
1.419,   2.083e-4
1.420,   2.163e-4
1.421,   2.243e-4
1.422,   2.329e-4
1.423,   2.425e-4
1.424,   2.520e-4
1.425,   2.621e-4
1.426,   2.732e-4
1.427,   2.848e-4
1.428,   2.967e-4
1.429,   3.089e-4
1.430,   3.222e-4
1.431,   3.363e-4
1.432,   3.505e-4
1.433,   3.657e-4
1.434,   3.817e-4
1.435,   3.980e-4
1.436,   4.161e-4
1.437,   4.347e-4
1.438,   4.535e-4
1.439,   4.743e-4
1.440,   4.960e-4
1.441,   5.181e-4
1.442,   5.418e-4
1.443,   5.659e-4
1.444,   5.919e-4
1.445,   6.191e-4
1.446,   6.467e-4
1.447,   6.760e-4
1.448,   7.067e-4
1.449,   7.387e-4
1.450,   7.717e-4
1.451,   8.063e-4
1.452,   8.424e-4
1.453,   8.813e-4
1.454,   9.208e-4
1.455,   9.618e-4
1.456,   1.003e-3
1.457,   1.049e-3
1.458,   1.095e-3
1.459,   1.142e-3
1.460,   1.192e-3
1.461,   1.244e-3
1.462,   1.297e-3
1.463,   1.356e-3
1.464,   1.413e-3
1.465,   1.474e-3
1.466,   1.537e-3
1.467,   1.600e-3
1.468,   1.668e-3
1.469,   1.740e-3
1.470,   1.809e-3
1.471,   1.883e-3
1.472,   1.959e-3
1.473,   2.038e-3
1.474,   2.126e-3
1.475,   2.232e-3
1.476,   2.318e-3
1.477,   2.407e-3
1.478,   2.499e-3
1.479,   2.593e-3
1.480,   2.692e-3
1.481,   2.799e-3
1.482,   2.908e-3
1.483,   3.010e-3
1.484,   3.121e-3
1.485,   3.238e-3
1.486,   3.350e-3
1.487,   3.466e-3
1.488,   3.594e-3
1.489,   3.735e-3
1.490,   3.879e-3
1.491,   4.014e-3
1.492,   4.156e-3
1.493,   4.301e-3
1.494,   4.436e-3
1.495,   4.579e-3
1.496,   4.733e-3
1.497,   4.870e-3
1.498,   5.024e-3
1.499,   5.184e-3
1.500,   5.337e-3
1.501,   5.497e-3
1.502,   5.663e-3
1.503,   5.840e-3
1.504,   6.023e-3
1.505,   6.181e-3
1.506,   6.348e-3
1.507,   6.519e-3
1.508,   6.714e-3
1.509,   6.903e-3
1.510,   7.135e-3
1.511,   7.320e-3
1.512,   7.594e-3
1.513,   7.768e-3
1.514,   7.976e-3
1.515,   8.121e-3
1.516,   8.308e-3
1.517,   8.577e-3
1.518,   8.848e-3
1.519,   9.065e-3
1.520,   9.337e-3
1.521,   9.779e-3
1.522,   1.007e-2
1.523,   1.007e-2
1.524,   1.007e-2
1.525,   1.007e-2
1.526,   1.007e-2
1.527,   1.007e-2
1.528,   1.007e-2
1.529,   1.007e-2
1.530,   1.007e-2
1.531,   1.007e-2
1.532,   1.007e-2