File: Experimental Records, Raw Data, and Supplementary Notes and Figures/batch2/final400/B2_BEST_400#16_High_Quality-253mV.txt
Jan. 14, 2023   15:23:47
Linear Sweep Voltammetry
File: d:\current work\al_oer\electrochemical test data\batch 2\400\B2_BEST_400#16_High_Quality-253mV.txt
Data Source:  Experiment
Instrument Model:  CHI660E
Header:
Note:

Init E (V) = 1.099

Final E (V) = 1.632

Scan Rate (V/s) = 0.010
Sample Interval (V) = 0.001
Quiet Time (sec) = 2
Sensitivity (A/V) = 0.001
Comp R (ohm) = 6.4

Results:

Channel 1:
Ep = 1.349V
ip = 9.996e-3A
Ah = 7.654e-2C

Potential/V, Current/A
1.099,   1.821e-4
1.100,   1.745e-4
1.101,   1.646e-4
1.102,   1.554e-4
1.103,   1.473e-4
1.104,   1.401e-4
1.105,   1.337e-4
1.106,   1.278e-4
1.107,   1.225e-4
1.108,   1.177e-4
1.109,   1.135e-4
1.110,   1.094e-4
1.111,   1.059e-4
1.112,   1.026e-4
1.113,   9.956e-5
1.114,   9.681e-5
1.115,   9.421e-5
1.116,   9.186e-5
1.117,   8.964e-5
1.118,   8.751e-5
1.119,   8.569e-5
1.120,   8.393e-5
1.121,   8.212e-5
1.122,   8.060e-5
1.123,   7.903e-5
1.124,   7.761e-5
1.125,   7.622e-5
1.126,   7.490e-5
1.127,   7.368e-5
1.128,   7.250e-5
1.129,   7.146e-5
1.130,   7.049e-5
1.131,   6.946e-5
1.132,   6.851e-5
1.133,   6.769e-5
1.134,   6.677e-5
1.135,   6.602e-5
1.136,   6.526e-5
1.137,   6.448e-5
1.138,   6.378e-5
1.139,   6.308e-5
1.140,   6.242e-5
1.141,   6.189e-5
1.142,   6.124e-5
1.143,   6.071e-5
1.144,   6.013e-5
1.145,   5.958e-5
1.146,   5.911e-5
1.147,   5.857e-5
1.148,   5.814e-5
1.149,   5.775e-5
1.150,   5.723e-5
1.151,   5.689e-5
1.152,   5.653e-5
1.153,   5.616e-5
1.154,   5.586e-5
1.155,   5.541e-5
1.156,   5.503e-5
1.157,   5.468e-5
1.158,   5.443e-5
1.159,   5.410e-5
1.160,   5.379e-5
1.161,   5.350e-5
1.162,   5.326e-5
1.163,   5.296e-5
1.164,   5.274e-5
1.165,   5.249e-5
1.166,   5.220e-5
1.167,   5.202e-5
1.168,   5.179e-5
1.169,   5.158e-5
1.170,   5.148e-5
1.171,   5.129e-5
1.172,   5.104e-5
1.173,   5.094e-5
1.174,   5.069e-5
1.175,   5.054e-5
1.176,   5.040e-5
1.177,   5.021e-5
1.178,   5.010e-5
1.179,   4.992e-5
1.180,   4.981e-5
1.181,   4.968e-5
1.182,   4.952e-5
1.183,   4.950e-5
1.184,   4.938e-5
1.185,   4.922e-5
1.186,   4.915e-5
1.187,   4.903e-5
1.188,   4.893e-5
1.189,   4.887e-5
1.190,   4.876e-5
1.191,   4.873e-5
1.192,   4.862e-5
1.193,   4.852e-5
1.194,   4.852e-5
1.195,   4.840e-5
1.196,   4.840e-5
1.197,   4.835e-5
1.198,   4.821e-5
1.199,   4.821e-5
1.200,   4.816e-5
1.201,   4.806e-5
1.202,   4.807e-5
1.203,   4.798e-5
1.204,   4.796e-5
1.205,   4.796e-5
1.206,   4.790e-5
1.207,   4.791e-5
1.208,   4.785e-5
1.209,   4.787e-5
1.210,   4.785e-5
1.211,   4.775e-5
1.212,   4.777e-5
1.213,   4.784e-5
1.214,   4.769e-5
1.215,   4.771e-5
1.216,   4.775e-5
1.217,   4.770e-5
1.218,   4.776e-5
1.219,   4.769e-5
1.220,   4.769e-5
1.221,   4.767e-5
1.222,   4.765e-5
1.223,   4.772e-5
1.224,   4.766e-5
1.225,   4.762e-5
1.226,   4.769e-5
1.227,   4.761e-5
1.228,   4.765e-5
1.229,   4.769e-5
1.230,   4.764e-5
1.231,   4.771e-5
1.232,   4.771e-5
1.233,   4.770e-5
1.234,   4.776e-5
1.235,   4.778e-5
1.236,   4.774e-5
1.237,   4.773e-5
1.238,   4.769e-5
1.239,   4.773e-5
1.240,   4.766e-5
1.241,   4.773e-5
1.242,   4.781e-5
1.243,   4.773e-5
1.244,   4.781e-5
1.245,   4.788e-5
1.246,   4.778e-5
1.247,   4.785e-5
1.248,   4.780e-5
1.249,   4.784e-5
1.250,   4.785e-5
1.251,   4.782e-5
1.252,   4.790e-5
1.253,   4.795e-5
1.254,   4.792e-5
1.255,   4.793e-5
1.256,   4.790e-5
1.257,   4.794e-5
1.258,   4.799e-5
1.259,   4.797e-5
1.260,   4.799e-5
1.261,   4.808e-5
1.262,   4.803e-5
1.263,   4.802e-5
1.264,   4.803e-5
1.265,   4.800e-5
1.266,   4.808e-5
1.267,   4.810e-5
1.268,   4.810e-5
1.269,   4.815e-5
1.270,   4.807e-5
1.271,   4.812e-5
1.272,   4.811e-5
1.273,   4.815e-5
1.274,   4.821e-5
1.275,   4.818e-5
1.276,   4.822e-5
1.277,   4.827e-5
1.278,   4.819e-5
1.279,   4.824e-5
1.280,   4.828e-5
1.281,   4.825e-5
1.282,   4.833e-5
1.283,   4.831e-5
1.284,   4.835e-5
1.285,   4.841e-5
1.286,   4.843e-5
1.287,   4.849e-5
1.288,   4.846e-5
1.289,   4.842e-5
1.290,   4.856e-5
1.291,   4.847e-5
1.292,   4.853e-5
1.293,   4.859e-5
1.294,   4.852e-5
1.295,   4.860e-5
1.296,   4.860e-5
1.297,   4.863e-5
1.298,   4.870e-5
1.299,   4.869e-5
1.300,   4.870e-5
1.301,   4.878e-5
1.302,   4.875e-5
1.303,   4.881e-5
1.304,   4.879e-5
1.305,   4.890e-5
1.306,   4.900e-5
1.307,   4.895e-5
1.308,   4.903e-5
1.309,   4.902e-5
1.310,   4.906e-5
1.311,   4.919e-5
1.312,   4.929e-5
1.313,   4.920e-5
1.314,   4.931e-5
1.315,   4.933e-5
1.316,   4.941e-5
1.317,   4.953e-5
1.318,   4.957e-5
1.319,   4.964e-5
1.320,   4.969e-5
1.321,   4.978e-5
1.322,   4.986e-5
1.323,   4.986e-5
1.324,   5.005e-5
1.325,   5.017e-5
1.326,   5.014e-5
1.327,   5.021e-5
1.328,   5.027e-5
1.329,   5.042e-5
1.330,   5.050e-5
1.331,   5.058e-5
1.332,   5.069e-5
1.333,   5.085e-5
1.334,   5.087e-5
1.335,   5.105e-5
1.336,   5.111e-5
1.337,   5.124e-5
1.338,   5.144e-5
1.339,   5.147e-5
1.340,   5.168e-5
1.341,   5.193e-5
1.342,   5.200e-5
1.343,   5.225e-5
1.344,   5.240e-5
1.345,   5.254e-5
1.346,   5.282e-5
1.347,   5.295e-5
1.348,   5.319e-5
1.349,   5.345e-5
1.350,   5.368e-5
1.351,   5.401e-5
1.352,   5.418e-5
1.353,   5.438e-5
1.354,   5.474e-5
1.355,   5.496e-5
1.356,   5.532e-5
1.357,   5.566e-5
1.358,   5.591e-5
1.359,   5.630e-5
1.360,   5.666e-5
1.361,   5.703e-5
1.362,   5.743e-5
1.363,   5.785e-5
1.364,   5.824e-5
1.365,   5.873e-5
1.366,   5.915e-5
1.367,   5.972e-5
1.368,   6.023e-5
1.369,   6.082e-5
1.370,   6.140e-5
1.371,   6.188e-5
1.372,   6.260e-5
1.373,   6.329e-5
1.374,   6.395e-5
1.375,   6.474e-5
1.376,   6.548e-5
1.377,   6.625e-5
1.378,   6.711e-5
1.379,   6.787e-5
1.380,   6.886e-5
1.381,   6.982e-5
1.382,   7.076e-5
1.383,   7.192e-5
1.384,   7.293e-5
1.385,   7.413e-5
1.386,   7.546e-5
1.387,   7.674e-5
1.388,   7.816e-5
1.389,   7.957e-5
1.390,   8.095e-5
1.391,   8.254e-5
1.392,   8.415e-5
1.393,   8.582e-5
1.394,   8.769e-5
1.395,   8.952e-5
1.396,   9.154e-5
1.397,   9.364e-5
1.398,   9.574e-5
1.399,   9.808e-5
1.400,   1.004e-4
1.401,   1.031e-4
1.402,   1.057e-4
1.403,   1.084e-4
1.404,   1.115e-4
1.405,   1.145e-4
1.406,   1.178e-4
1.407,   1.213e-4
1.408,   1.249e-4
1.409,   1.286e-4
1.410,   1.326e-4
1.411,   1.368e-4
1.412,   1.411e-4
1.413,   1.457e-4
1.414,   1.505e-4
1.415,   1.556e-4
1.416,   1.609e-4
1.417,   1.664e-4
1.418,   1.722e-4
1.419,   1.781e-4
1.420,   1.844e-4
1.421,   1.911e-4
1.422,   1.978e-4
1.423,   2.052e-4
1.424,   2.127e-4
1.425,   2.206e-4
1.426,   2.289e-4
1.427,   2.375e-4
1.428,   2.465e-4
1.429,   2.558e-4
1.430,   2.656e-4
1.431,   2.760e-4
1.432,   2.865e-4
1.433,   2.975e-4
1.434,   3.090e-4
1.435,   3.211e-4
1.436,   3.336e-4
1.437,   3.466e-4
1.438,   3.600e-4
1.439,   3.741e-4
1.440,   3.888e-4
1.441,   4.040e-4
1.442,   4.199e-4
1.443,   4.366e-4
1.444,   4.539e-4
1.445,   4.717e-4
1.446,   4.903e-4
1.447,   5.098e-4
1.448,   5.300e-4
1.449,   5.507e-4
1.450,   5.722e-4
1.451,   5.942e-4
1.452,   6.175e-4
1.453,   6.424e-4
1.454,   6.673e-4
1.455,   6.931e-4
1.456,   7.199e-4
1.457,   7.475e-4
1.458,   7.763e-4
1.459,   8.061e-4
1.460,   8.362e-4
1.461,   8.682e-4
1.462,   9.010e-4
1.463,   9.347e-4
1.464,   9.697e-4
1.465,   1.006e-3
1.466,   1.042e-3
1.467,   1.081e-3
1.468,   1.121e-3
1.469,   1.162e-3
1.470,   1.204e-3
1.471,   1.247e-3
1.472,   1.292e-3
1.473,   1.338e-3
1.474,   1.385e-3
1.475,   1.434e-3
1.476,   1.484e-3
1.477,   1.536e-3
1.478,   1.590e-3
1.479,   1.645e-3
1.480,   1.701e-3
1.481,   1.759e-3
1.482,   1.819e-3
1.483,   1.879e-3
1.484,   1.943e-3
1.485,   2.009e-3
1.486,   2.076e-3
1.487,   2.144e-3
1.488,   2.213e-3
1.489,   2.286e-3
1.490,   2.359e-3
1.491,   2.435e-3
1.492,   2.512e-3
1.493,   2.592e-3
1.494,   2.674e-3
1.495,   2.759e-3
1.496,   2.845e-3
1.497,   2.931e-3
1.498,   3.019e-3
1.499,   3.110e-3
1.500,   3.207e-3
1.501,   3.301e-3
1.502,   3.399e-3
1.503,   3.500e-3
1.504,   3.598e-3
1.505,   3.699e-3
1.506,   3.808e-3
1.507,   3.912e-3
1.508,   4.017e-3
1.509,   4.130e-3
1.510,   4.257e-3
1.511,   4.367e-3
1.512,   4.497e-3
1.513,   4.619e-3
1.514,   4.733e-3
1.515,   4.847e-3
1.516,   4.973e-3
1.517,   5.105e-3
1.518,   5.237e-3
1.519,   5.367e-3
1.520,   5.499e-3
1.521,   5.638e-3
1.522,   5.775e-3
1.523,   5.939e-3
1.524,   6.077e-3
1.525,   6.211e-3
1.526,   6.367e-3
1.527,   6.518e-3
1.528,   6.678e-3
1.529,   6.890e-3
1.530,   7.040e-3
1.531,   7.198e-3
1.532,   7.337e-3
1.533,   7.560e-3
1.534,   7.798e-3
1.535,   7.923e-3
1.536,   8.069e-3
1.537,   8.241e-3
1.538,   8.423e-3
1.539,   8.592e-3
1.540,   8.815e-3
1.541,   8.991e-3
1.542,   9.118e-3
1.543,   9.303e-3
1.544,   9.488e-3
1.545,   9.824e-3
1.546,   1.004e-2
1.547,   1.006e-2
1.548,   1.006e-2
1.549,   1.006e-2
1.550,   1.006e-2
1.551,   1.006e-2
1.552,   1.006e-2
1.553,   1.006e-2
1.554,   1.006e-2
1.555,   1.006e-2
1.556,   1.006e-2
1.557,   1.006e-2
1.558,   1.006e-2
1.559,   1.006e-2
1.560,   1.006e-2
1.561,   1.006e-2
1.562,   1.006e-2
1.563,   1.006e-2
1.564,   1.006e-2
1.565,   1.006e-2
1.566,   1.006e-2
1.567,   1.006e-2
1.568,   1.006e-2
1.569,   1.006e-2
1.570,   1.006e-2
1.571,   1.006e-2
1.572,   1.006e-2
1.573,   1.006e-2
1.574,   1.006e-2
1.575,   1.006e-2
1.576,   1.006e-2
1.577,   1.006e-2
1.578,   1.006e-2
1.579,   1.006e-2
1.580,   1.006e-2
1.581,   1.006e-2
1.582,   1.006e-2
1.583,   1.006e-2
1.584,   1.006e-2
1.585,   1.006e-2
1.586,   1.006e-2
1.587,   1.006e-2
1.588,   1.006e-2
1.589,   1.006e-2
1.590,   1.006e-2
1.591,   1.006e-2
1.592,   1.006e-2
1.593,   1.006e-2
1.594,   1.006e-2
1.595,   1.006e-2
1.596,   1.006e-2
1.597,   1.006e-2
1.598,   1.006e-2
1.599,   1.006e-2
1.600,   1.006e-2
1.601,   1.006e-2
1.602,   1.006e-2
1.603,   1.006e-2
1.604,   1.006e-2
1.605,   1.006e-2
1.606,   1.006e-2
1.607,   1.006e-2
1.608,   1.006e-2
1.609,   1.006e-2
1.610,   1.006e-2
1.611,   1.006e-2
1.612,   1.006e-2
1.613,   1.006e-2
1.614,   1.006e-2
1.615,   1.006e-2
1.616,   1.006e-2
1.617,   1.006e-2
1.618,   1.006e-2
1.619,   1.006e-2
1.620,   1.006e-2
1.621,   1.006e-2
1.622,   1.006e-2
1.623,   1.006e-2
1.624,   1.006e-2
1.625,   1.006e-2
1.626,   1.006e-2
1.627,   1.006e-2
1.628,   1.006e-2
1.629,   1.006e-2
1.630,   1.006e-2
1.631,   1.006e-2
1.632,   1.006e-2