File: Experimental Records, Raw Data, and Supplementary Notes and Figures/batch2/final400/B2_BEST_400#17_High_Quality-250mV.txt
Jan. 14, 2023   15:34:57
Linear Sweep Voltammetry
File: d:\current work\al_oer\electrochemical test data\batch 2\400\B2_BEST_400#17_High_Quality-250mV.txt
Data Source:  Experiment
Instrument Model:  CHI660E
Header:
Note:

Init E (V) = 1.099

Final E (V) = 1.698

Scan Rate (V/s) = 0.010
Sample Interval (V) = 0.001
Quiet Time (sec) = 2
Sensitivity (A/V) = 0.001
Comp R (ohm) = 6.2

Results:

Channel 1:
Ep = 1.335V
ip = 1.001e-2A
Ah = 5.841e-2C

Potential/V, Current/A
1.099,   1.151e-4
1.100,   1.118e-4
1.101,   1.059e-4
1.102,   1.002e-4
1.103,   9.513e-5
1.104,   9.063e-5
1.105,   8.658e-5
1.106,   8.304e-5
1.107,   7.984e-5
1.108,   7.692e-5
1.109,   7.417e-5
1.110,   7.170e-5
1.111,   6.953e-5
1.112,   6.753e-5
1.113,   6.566e-5
1.114,   6.396e-5
1.115,   6.227e-5
1.116,   6.088e-5
1.117,   5.954e-5
1.118,   5.819e-5
1.119,   5.707e-5
1.120,   5.607e-5
1.121,   5.496e-5
1.122,   5.408e-5
1.123,   5.311e-5
1.124,   5.222e-5
1.125,   5.148e-5
1.126,   5.066e-5
1.127,   4.991e-5
1.128,   4.929e-5
1.129,   4.865e-5
1.130,   4.808e-5
1.131,   4.747e-5
1.132,   4.697e-5
1.133,   4.641e-5
1.134,   4.590e-5
1.135,   4.546e-5
1.136,   4.499e-5
1.137,   4.451e-5
1.138,   4.417e-5
1.139,   4.379e-5
1.140,   4.344e-5
1.141,   4.314e-5
1.142,   4.276e-5
1.143,   4.251e-5
1.144,   4.219e-5
1.145,   4.198e-5
1.146,   4.174e-5
1.147,   4.144e-5
1.148,   4.122e-5
1.149,   4.097e-5
1.150,   4.074e-5
1.151,   4.057e-5
1.152,   4.038e-5
1.153,   4.017e-5
1.154,   3.999e-5
1.155,   3.979e-5
1.156,   3.968e-5
1.157,   3.954e-5
1.158,   3.939e-5
1.159,   3.922e-5
1.160,   3.909e-5
1.161,   3.898e-5
1.162,   3.889e-5
1.163,   3.870e-5
1.164,   3.861e-5
1.165,   3.849e-5
1.166,   3.836e-5
1.167,   3.831e-5
1.168,   3.818e-5
1.169,   3.809e-5
1.170,   3.803e-5
1.171,   3.797e-5
1.172,   3.791e-5
1.173,   3.793e-5
1.174,   3.780e-5
1.175,   3.774e-5
1.176,   3.770e-5
1.177,   3.762e-5
1.178,   3.759e-5
1.179,   3.752e-5
1.180,   3.748e-5
1.181,   3.748e-5
1.182,   3.743e-5
1.183,   3.745e-5
1.184,   3.741e-5
1.185,   3.733e-5
1.186,   3.734e-5
1.187,   3.726e-5
1.188,   3.724e-5
1.189,   3.724e-5
1.190,   3.719e-5
1.191,   3.716e-5
1.192,   3.716e-5
1.193,   3.712e-5
1.194,   3.716e-5
1.195,   3.711e-5
1.196,   3.715e-5
1.197,   3.713e-5
1.198,   3.706e-5
1.199,   3.715e-5
1.200,   3.712e-5
1.201,   3.710e-5
1.202,   3.713e-5
1.203,   3.707e-5
1.204,   3.708e-5
1.205,   3.710e-5
1.206,   3.704e-5
1.207,   3.711e-5
1.208,   3.706e-5
1.209,   3.714e-5
1.210,   3.717e-5
1.211,   3.714e-5
1.212,   3.719e-5
1.213,   3.716e-5
1.214,   3.711e-5
1.215,   3.722e-5
1.216,   3.725e-5
1.217,   3.723e-5
1.218,   3.729e-5
1.219,   3.724e-5
1.220,   3.724e-5
1.221,   3.731e-5
1.222,   3.728e-5
1.223,   3.737e-5
1.224,   3.730e-5
1.225,   3.735e-5
1.226,   3.736e-5
1.227,   3.734e-5
1.228,   3.737e-5
1.229,   3.746e-5
1.230,   3.743e-5
1.231,   3.748e-5
1.232,   3.752e-5
1.233,   3.750e-5
1.234,   3.758e-5
1.235,   3.763e-5
1.236,   3.764e-5
1.237,   3.767e-5
1.238,   3.765e-5
1.239,   3.772e-5
1.240,   3.768e-5
1.241,   3.771e-5
1.242,   3.781e-5
1.243,   3.776e-5
1.244,   3.782e-5
1.245,   3.787e-5
1.246,   3.781e-5
1.247,   3.792e-5
1.248,   3.793e-5
1.249,   3.790e-5
1.250,   3.798e-5
1.251,   3.794e-5
1.252,   3.800e-5
1.253,   3.811e-5
1.254,   3.813e-5
1.255,   3.817e-5
1.256,   3.819e-5
1.257,   3.818e-5
1.258,   3.826e-5
1.259,   3.820e-5
1.260,   3.832e-5
1.261,   3.840e-5
1.262,   3.831e-5
1.263,   3.837e-5
1.264,   3.838e-5
1.265,   3.842e-5
1.266,   3.853e-5
1.267,   3.849e-5
1.268,   3.853e-5
1.269,   3.859e-5
1.270,   3.854e-5
1.271,   3.866e-5
1.272,   3.862e-5
1.273,   3.869e-5
1.274,   3.874e-5
1.275,   3.870e-5
1.276,   3.880e-5
1.277,   3.884e-5
1.278,   3.880e-5
1.279,   3.891e-5
1.280,   3.896e-5
1.281,   3.892e-5
1.282,   3.907e-5
1.283,   3.905e-5
1.284,   3.904e-5
1.285,   3.911e-5
1.286,   3.916e-5
1.287,   3.925e-5
1.288,   3.922e-5
1.289,   3.924e-5
1.290,   3.936e-5
1.291,   3.932e-5
1.292,   3.941e-5
1.293,   3.948e-5
1.294,   3.943e-5
1.295,   3.954e-5
1.296,   3.958e-5
1.297,   3.958e-5
1.298,   3.968e-5
1.299,   3.973e-5
1.300,   3.978e-5
1.301,   3.984e-5
1.302,   3.979e-5
1.303,   3.986e-5
1.304,   3.987e-5
1.305,   3.992e-5
1.306,   3.998e-5
1.307,   3.999e-5
1.308,   4.010e-5
1.309,   4.018e-5
1.310,   4.016e-5
1.311,   4.029e-5
1.312,   4.040e-5
1.313,   4.044e-5
1.314,   4.055e-5
1.315,   4.056e-5
1.316,   4.065e-5
1.317,   4.075e-5
1.318,   4.076e-5
1.319,   4.080e-5
1.320,   4.088e-5
1.321,   4.095e-5
1.322,   4.106e-5
1.323,   4.107e-5
1.324,   4.124e-5
1.325,   4.134e-5
1.326,   4.132e-5
1.327,   4.142e-5
1.328,   4.149e-5
1.329,   4.159e-5
1.330,   4.173e-5
1.331,   4.183e-5
1.332,   4.191e-5
1.333,   4.202e-5
1.334,   4.206e-5
1.335,   4.219e-5
1.336,   4.223e-5
1.337,   4.240e-5
1.338,   4.253e-5
1.339,   4.257e-5
1.340,   4.281e-5
1.341,   4.299e-5
1.342,   4.299e-5
1.343,   4.315e-5
1.344,   4.335e-5
1.345,   4.346e-5
1.346,   4.361e-5
1.347,   4.374e-5
1.348,   4.396e-5
1.349,   4.416e-5
1.350,   4.431e-5
1.351,   4.456e-5
1.352,   4.470e-5
1.353,   4.498e-5
1.354,   4.525e-5
1.355,   4.534e-5
1.356,   4.561e-5
1.357,   4.580e-5
1.358,   4.603e-5
1.359,   4.635e-5
1.360,   4.666e-5
1.361,   4.692e-5
1.362,   4.728e-5
1.363,   4.760e-5
1.364,   4.795e-5
1.365,   4.833e-5
1.366,   4.868e-5
1.367,   4.912e-5
1.368,   4.951e-5
1.369,   4.998e-5
1.370,   5.052e-5
1.371,   5.095e-5
1.372,   5.150e-5
1.373,   5.205e-5
1.374,   5.257e-5
1.375,   5.324e-5
1.376,   5.395e-5
1.377,   5.453e-5
1.378,   5.537e-5
1.379,   5.604e-5
1.380,   5.682e-5
1.381,   5.766e-5
1.382,   5.849e-5
1.383,   5.942e-5
1.384,   6.045e-5
1.385,   6.151e-5
1.386,   6.270e-5
1.387,   6.380e-5
1.388,   6.508e-5
1.389,   6.648e-5
1.390,   6.776e-5
1.391,   6.928e-5
1.392,   7.074e-5
1.393,   7.233e-5
1.394,   7.422e-5
1.395,   7.600e-5
1.396,   7.798e-5
1.397,   8.008e-5
1.398,   8.218e-5
1.399,   8.455e-5
1.400,   8.687e-5
1.401,   8.945e-5
1.402,   9.219e-5
1.403,   9.488e-5
1.404,   9.789e-5
1.405,   1.011e-4
1.406,   1.044e-4
1.407,   1.079e-4
1.408,   1.116e-4
1.409,   1.155e-4
1.410,   1.196e-4
1.411,   1.240e-4
1.412,   1.285e-4
1.413,   1.333e-4
1.414,   1.383e-4
1.415,   1.436e-4
1.416,   1.492e-4
1.417,   1.551e-4
1.418,   1.613e-4
1.419,   1.677e-4
1.420,   1.744e-4
1.421,   1.816e-4
1.422,   1.889e-4
1.423,   1.967e-4
1.424,   2.047e-4
1.425,   2.132e-4
1.426,   2.222e-4
1.427,   2.316e-4
1.428,   2.414e-4
1.429,   2.516e-4
1.430,   2.623e-4
1.431,   2.735e-4
1.432,   2.852e-4
1.433,   2.974e-4
1.434,   3.102e-4
1.435,   3.234e-4
1.436,   3.373e-4
1.437,   3.518e-4
1.438,   3.667e-4
1.439,   3.824e-4
1.440,   3.988e-4
1.441,   4.159e-4
1.442,   4.340e-4
1.443,   4.525e-4
1.444,   4.720e-4
1.445,   4.920e-4
1.446,   5.127e-4
1.447,   5.343e-4
1.448,   5.570e-4
1.449,   5.805e-4
1.450,   6.048e-4
1.451,   6.301e-4
1.452,   6.563e-4
1.453,   6.836e-4
1.454,   7.118e-4
1.455,   7.409e-4
1.456,   7.713e-4
1.457,   8.026e-4
1.458,   8.349e-4
1.459,   8.687e-4
1.460,   9.039e-4
1.461,   9.404e-4
1.462,   9.782e-4
1.463,   1.017e-3
1.464,   1.057e-3
1.465,   1.099e-3
1.466,   1.142e-3
1.467,   1.186e-3
1.468,   1.232e-3
1.469,   1.280e-3
1.470,   1.328e-3
1.471,   1.379e-3
1.472,   1.431e-3
1.473,   1.485e-3
1.474,   1.541e-3
1.475,   1.597e-3
1.476,   1.656e-3
1.477,   1.717e-3
1.478,   1.781e-3
1.479,   1.846e-3
1.480,   1.911e-3
1.481,   1.978e-3
1.482,   2.048e-3
1.483,   2.120e-3
1.484,   2.193e-3
1.485,   2.269e-3
1.486,   2.346e-3
1.487,   2.424e-3
1.488,   2.505e-3
1.489,   2.588e-3
1.490,   2.673e-3
1.491,   2.760e-3
1.492,   2.849e-3
1.493,   2.941e-3
1.494,   3.033e-3
1.495,   3.128e-3
1.496,   3.226e-3
1.497,   3.326e-3
1.498,   3.425e-3
1.499,   3.525e-3
1.500,   3.629e-3
1.501,   3.735e-3
1.502,   3.842e-3
1.503,   3.962e-3
1.504,   4.077e-3
1.505,   4.189e-3
1.506,   4.304e-3
1.507,   4.416e-3
1.508,   4.530e-3
1.509,   4.644e-3
1.510,   4.760e-3
1.511,   4.878e-3
1.512,   4.995e-3
1.513,   5.119e-3
1.514,   5.245e-3
1.515,   5.380e-3
1.516,   5.512e-3
1.517,   5.641e-3
1.518,   5.780e-3
1.519,   5.885e-3
1.520,   5.983e-3
1.521,   6.109e-3
1.522,   6.243e-3
1.523,   6.408e-3
1.524,   6.546e-3
1.525,   6.672e-3
1.526,   6.794e-3
1.527,   6.933e-3
1.528,   7.093e-3
1.529,   7.251e-3
1.530,   8.079e-3
1.531,   9.322e-3
1.532,   1.004e-2
1.533,   1.006e-2
1.534,   1.006e-2
1.535,   1.006e-2
1.536,   1.006e-2
1.537,   1.006e-2
1.538,   1.006e-2
1.539,   1.006e-2
1.540,   1.006e-2
1.541,   1.006e-2
1.542,   1.006e-2
1.543,   1.006e-2
1.544,   1.006e-2
1.545,   1.006e-2
1.546,   1.006e-2
1.547,   1.006e-2
1.548,   1.006e-2
1.549,   1.006e-2
1.550,   1.006e-2
1.551,   1.006e-2
1.552,   1.006e-2
1.553,   1.006e-2
1.554,   1.006e-2
1.555,   1.006e-2
1.556,   1.006e-2
1.557,   1.006e-2
1.558,   1.006e-2
1.559,   1.006e-2
1.560,   1.006e-2
1.561,   1.006e-2
1.562,   1.006e-2
1.563,   1.006e-2
1.564,   1.006e-2
1.565,   1.006e-2
1.566,   1.006e-2
1.567,   1.006e-2
1.568,   1.006e-2
1.569,   1.006e-2
1.570,   1.006e-2
1.571,   1.006e-2
1.572,   1.006e-2
1.573,   1.006e-2
1.574,   1.006e-2
1.575,   1.006e-2
1.576,   1.006e-2
1.577,   1.006e-2
1.578,   1.006e-2
1.579,   1.006e-2
1.580,   1.006e-2
1.581,   1.006e-2
1.582,   1.006e-2
1.583,   1.006e-2
1.584,   1.006e-2
1.585,   1.006e-2
1.586,   1.006e-2
1.587,   1.006e-2
1.588,   1.006e-2
1.589,   1.006e-2
1.590,   1.006e-2
1.591,   1.006e-2
1.592,   1.006e-2
1.593,   1.006e-2
1.594,   1.006e-2
1.595,   1.006e-2
1.596,   1.006e-2
1.597,   1.006e-2
1.598,   1.006e-2
1.599,   1.006e-2
1.600,   1.006e-2
1.601,   1.006e-2
1.602,   1.006e-2
1.603,   1.006e-2
1.604,   1.006e-2
1.605,   1.006e-2
1.606,   1.006e-2
1.607,   1.006e-2
1.608,   1.006e-2
1.609,   1.006e-2
1.610,   1.006e-2
1.611,   1.006e-2
1.612,   1.006e-2
1.613,   1.006e-2
1.614,   1.006e-2
1.615,   1.006e-2
1.616,   1.006e-2
1.617,   1.006e-2
1.618,   1.006e-2
1.619,   1.006e-2
1.620,   1.006e-2
1.621,   1.006e-2
1.622,   1.006e-2
1.623,   1.006e-2
1.624,   1.006e-2
1.625,   1.006e-2
1.626,   1.006e-2
1.627,   1.006e-2
1.628,   1.006e-2
1.629,   1.006e-2
1.630,   1.006e-2
1.631,   1.006e-2
1.632,   1.006e-2
1.633,   1.006e-2
1.634,   1.006e-2
1.635,   1.006e-2
1.636,   1.006e-2
1.637,   1.006e-2
1.638,   1.006e-2
1.639,   1.006e-2
1.640,   1.006e-2
1.641,   1.006e-2
1.642,   1.006e-2
1.643,   1.006e-2
1.644,   1.006e-2
1.645,   1.006e-2
1.646,   1.006e-2
1.647,   1.006e-2
1.648,   1.006e-2
1.649,   1.006e-2
1.650,   1.006e-2
1.651,   1.006e-2
1.652,   1.006e-2
1.653,   1.006e-2
1.654,   1.006e-2
1.655,   1.006e-2
1.656,   1.006e-2
1.657,   1.006e-2
1.658,   1.006e-2
1.659,   1.006e-2
1.660,   1.006e-2
1.661,   1.006e-2
1.662,   1.006e-2
1.663,   1.006e-2
1.664,   1.006e-2
1.665,   1.006e-2
1.666,   1.006e-2
1.667,   1.006e-2
1.668,   1.006e-2
1.669,   1.006e-2
1.670,   1.006e-2
1.671,   1.006e-2
1.672,   1.006e-2
1.673,   1.006e-2
1.674,   1.006e-2
1.675,   1.006e-2
1.676,   1.006e-2
1.677,   1.006e-2
1.678,   1.006e-2
1.679,   1.006e-2
1.680,   1.006e-2
1.681,   1.006e-2
1.682,   1.006e-2
1.683,   1.006e-2
1.684,   1.006e-2
1.685,   1.006e-2
1.686,   1.006e-2
1.687,   1.006e-2
1.688,   1.006e-2
1.689,   1.006e-2
1.690,   1.006e-2
1.691,   1.006e-2
1.692,   1.006e-2
1.693,   1.006e-2
1.694,   1.006e-2
1.695,   1.006e-2
1.696,   1.006e-2
1.697,   1.006e-2
1.698,   1.006e-2