File: Experimental Records, Raw Data, and Supplementary Notes and Figures/batch2/final400/B2_VARIANCE_400#2_High_Quality-205mV.txt
Jan. 14, 2023   13:42:28
Linear Sweep Voltammetry
File: d:\current work\al_oer\electrochemical test data\batch 2\400\B2_VARIANCE_400#2_High_Quality-205mV.txt
Data Source:  Experiment
Instrument Model:  CHI660E
Header:
Note:

Init E (V) = 1.099

Final E (V) = 1.798

Scan Rate (V/s) = 0.010
Sample Interval (V) = 0.001
Quiet Time (sec) = 2
Sensitivity (A/V) = 0.001
Comp R (ohm) = 5.8

Results:

Channel 1:
Ep = 1.274V
ip = 9.988e-3A
Ah = 4.472e-2C

Potential/V, Current/A
1.099,   2.297e-4
1.100,   2.171e-4
1.101,   1.998e-4
1.102,   1.837e-4
1.103,   1.698e-4
1.104,   1.577e-4
1.105,   1.472e-4
1.106,   1.382e-4
1.107,   1.305e-4
1.108,   1.235e-4
1.109,   1.175e-4
1.110,   1.120e-4
1.111,   1.074e-4
1.112,   1.031e-4
1.113,   9.941e-5
1.114,   9.612e-5
1.115,   9.299e-5
1.116,   9.030e-5
1.117,   8.784e-5
1.118,   8.536e-5
1.119,   8.351e-5
1.120,   8.187e-5
1.121,   7.995e-5
1.122,   7.852e-5
1.123,   7.689e-5
1.124,   7.560e-5
1.125,   7.435e-5
1.126,   7.326e-5
1.127,   7.234e-5
1.128,   7.125e-5
1.129,   7.037e-5
1.130,   6.966e-5
1.131,   6.874e-5
1.132,   6.817e-5
1.133,   6.757e-5
1.134,   6.681e-5
1.135,   6.638e-5
1.136,   6.577e-5
1.137,   6.519e-5
1.138,   6.489e-5
1.139,   6.439e-5
1.140,   6.410e-5
1.141,   6.381e-5
1.142,   6.329e-5
1.143,   6.309e-5
1.144,   6.268e-5
1.145,   6.247e-5
1.146,   6.235e-5
1.147,   6.192e-5
1.148,   6.176e-5
1.149,   6.162e-5
1.150,   6.127e-5
1.151,   6.124e-5
1.152,   6.100e-5
1.153,   6.081e-5
1.154,   6.081e-5
1.155,   6.049e-5
1.156,   6.032e-5
1.157,   6.032e-5
1.158,   6.020e-5
1.159,   6.009e-5
1.160,   5.989e-5
1.161,   5.983e-5
1.162,   5.980e-5
1.163,   5.951e-5
1.164,   5.964e-5
1.165,   5.967e-5
1.166,   5.941e-5
1.167,   5.947e-5
1.168,   5.937e-5
1.169,   5.929e-5
1.170,   5.935e-5
1.171,   5.935e-5
1.172,   5.924e-5
1.173,   5.931e-5
1.174,   5.912e-5
1.175,   5.925e-5
1.176,   5.912e-5
1.177,   5.912e-5
1.178,   5.917e-5
1.179,   5.897e-5
1.180,   5.910e-5
1.181,   5.910e-5
1.182,   5.895e-5
1.183,   5.915e-5
1.184,   5.927e-5
1.185,   5.910e-5
1.186,   5.919e-5
1.187,   5.905e-5
1.188,   5.908e-5
1.189,   5.911e-5
1.190,   5.909e-5
1.191,   5.922e-5
1.192,   5.916e-5
1.193,   5.911e-5
1.194,   5.928e-5
1.195,   5.909e-5
1.196,   5.938e-5
1.197,   5.940e-5
1.198,   5.927e-5
1.199,   5.942e-5
1.200,   5.946e-5
1.201,   5.937e-5
1.202,   5.959e-5
1.203,   5.947e-5
1.204,   5.955e-5
1.205,   5.964e-5
1.206,   5.957e-5
1.207,   5.966e-5
1.208,   5.967e-5
1.209,   5.986e-5
1.210,   6.001e-5
1.211,   5.976e-5
1.212,   5.986e-5
1.213,   5.995e-5
1.214,   5.987e-5
1.215,   6.016e-5
1.216,   6.009e-5
1.217,   5.999e-5
1.218,   6.028e-5
1.219,   6.012e-5
1.220,   6.019e-5
1.221,   6.032e-5
1.222,   6.024e-5
1.223,   6.040e-5
1.224,   6.038e-5
1.225,   6.049e-5
1.226,   6.062e-5
1.227,   6.039e-5
1.228,   6.059e-5
1.229,   6.071e-5
1.230,   6.059e-5
1.231,   6.076e-5
1.232,   6.071e-5
1.233,   6.069e-5
1.234,   6.091e-5
1.235,   6.097e-5
1.236,   6.108e-5
1.237,   6.108e-5
1.238,   6.091e-5
1.239,   6.114e-5
1.240,   6.106e-5
1.241,   6.112e-5
1.242,   6.129e-5
1.243,   6.108e-5
1.244,   6.123e-5
1.245,   6.137e-5
1.246,   6.119e-5
1.247,   6.146e-5
1.248,   6.144e-5
1.249,   6.140e-5
1.250,   6.158e-5
1.251,   6.151e-5
1.252,   6.158e-5
1.253,   6.175e-5
1.254,   6.173e-5
1.255,   6.194e-5
1.256,   6.187e-5
1.257,   6.178e-5
1.258,   6.197e-5
1.259,   6.185e-5
1.260,   6.212e-5
1.261,   6.217e-5
1.262,   6.205e-5
1.263,   6.224e-5
1.264,   6.224e-5
1.265,   6.222e-5
1.266,   6.236e-5
1.267,   6.232e-5
1.268,   6.225e-5
1.269,   6.246e-5
1.270,   6.241e-5
1.271,   6.262e-5
1.272,   6.256e-5
1.273,   6.269e-5
1.274,   6.288e-5
1.275,   6.271e-5
1.276,   6.280e-5
1.277,   6.303e-5
1.278,   6.292e-5
1.279,   6.319e-5
1.280,   6.307e-5
1.281,   6.309e-5
1.282,   6.337e-5
1.283,   6.318e-5
1.284,   6.330e-5
1.285,   6.345e-5
1.286,   6.345e-5
1.287,   6.342e-5
1.288,   6.345e-5
1.289,   6.354e-5
1.290,   6.373e-5
1.291,   6.356e-5
1.292,   6.372e-5
1.293,   6.401e-5
1.294,   6.375e-5
1.295,   6.396e-5
1.296,   6.397e-5
1.297,   6.399e-5
1.298,   6.435e-5
1.299,   6.424e-5
1.300,   6.429e-5
1.301,   6.448e-5
1.302,   6.444e-5
1.303,   6.462e-5
1.304,   6.483e-5
1.305,   6.477e-5
1.306,   6.490e-5
1.307,   6.474e-5
1.308,   6.483e-5
1.309,   6.510e-5
1.310,   6.498e-5
1.311,   6.524e-5
1.312,   6.546e-5
1.313,   6.534e-5
1.314,   6.558e-5
1.315,   6.546e-5
1.316,   6.571e-5
1.317,   6.585e-5
1.318,   6.586e-5
1.319,   6.597e-5
1.320,   6.603e-5
1.321,   6.613e-5
1.322,   6.648e-5
1.323,   6.641e-5
1.324,   6.688e-5
1.325,   6.714e-5
1.326,   6.691e-5
1.327,   6.709e-5
1.328,   6.715e-5
1.329,   6.717e-5
1.330,   6.753e-5
1.331,   6.752e-5
1.332,   6.774e-5
1.333,   6.812e-5
1.334,   6.805e-5
1.335,   6.852e-5
1.336,   6.856e-5
1.337,   6.888e-5
1.338,   6.913e-5
1.339,   6.904e-5
1.340,   6.942e-5
1.341,   6.975e-5
1.342,   6.974e-5
1.343,   7.023e-5
1.344,   7.056e-5
1.345,   7.056e-5
1.346,   7.118e-5
1.347,   7.131e-5
1.348,   7.164e-5
1.349,   7.208e-5
1.350,   7.234e-5
1.351,   7.283e-5
1.352,   7.322e-5
1.353,   7.355e-5
1.354,   7.417e-5
1.355,   7.439e-5
1.356,   7.509e-5
1.357,   7.570e-5
1.358,   7.611e-5
1.359,   7.688e-5
1.360,   7.749e-5
1.361,   7.797e-5
1.362,   7.897e-5
1.363,   7.976e-5
1.364,   8.049e-5
1.365,   8.153e-5
1.366,   8.229e-5
1.367,   8.350e-5
1.368,   8.467e-5
1.369,   8.585e-5
1.370,   8.733e-5
1.371,   8.850e-5
1.372,   9.009e-5
1.373,   9.180e-5
1.374,   9.341e-5
1.375,   9.561e-5
1.376,   9.793e-5
1.377,   9.984e-5
1.378,   1.024e-4
1.379,   1.047e-4
1.380,   1.076e-4
1.381,   1.108e-4
1.382,   1.140e-4
1.383,   1.177e-4
1.384,   1.214e-4
1.385,   1.256e-4
1.386,   1.302e-4
1.387,   1.348e-4
1.388,   1.402e-4
1.389,   1.460e-4
1.390,   1.518e-4
1.391,   1.588e-4
1.392,   1.658e-4
1.393,   1.731e-4
1.394,   1.815e-4
1.395,   1.903e-4
1.396,   1.998e-4
1.397,   2.103e-4
1.398,   2.211e-4
1.399,   2.331e-4
1.400,   2.458e-4
1.401,   2.595e-4
1.402,   2.742e-4
1.403,   2.896e-4
1.404,   3.065e-4
1.405,   3.243e-4
1.406,   3.432e-4
1.407,   3.637e-4
1.408,   3.856e-4
1.409,   4.089e-4
1.410,   4.340e-4
1.411,   4.601e-4
1.412,   4.883e-4
1.413,   5.179e-4
1.414,   5.498e-4
1.415,   5.832e-4
1.416,   6.184e-4
1.417,   6.563e-4
1.418,   6.966e-4
1.419,   7.383e-4
1.420,   7.831e-4
1.421,   8.302e-4
1.422,   8.794e-4
1.423,   9.324e-4
1.424,   9.871e-4
1.425,   1.045e-3
1.426,   1.107e-3
1.427,   1.172e-3
1.428,   1.240e-3
1.429,   1.311e-3
1.430,   1.386e-3
1.431,   1.465e-3
1.432,   1.549e-3
1.433,   1.636e-3
1.434,   1.730e-3
1.435,   1.827e-3
1.436,   1.929e-3
1.437,   2.035e-3
1.438,   2.151e-3
1.439,   2.268e-3
1.440,   2.390e-3
1.441,   2.519e-3
1.442,   2.655e-3
1.443,   2.798e-3
1.444,   2.945e-3
1.445,   3.101e-3
1.446,   3.258e-3
1.447,   3.425e-3
1.448,   3.597e-3
1.449,   3.791e-3
1.450,   3.982e-3
1.451,   4.173e-3
1.452,   4.381e-3
1.453,   4.621e-3
1.454,   4.848e-3
1.455,   5.078e-3
1.456,   5.332e-3
1.457,   5.595e-3
1.458,   5.864e-3
1.459,   6.150e-3
1.460,   6.426e-3
1.461,   6.701e-3
1.462,   7.038e-3
1.463,   7.352e-3
1.464,   7.704e-3
1.465,   8.029e-3
1.466,   8.317e-3
1.467,   8.683e-3
1.468,   9.050e-3
1.469,   9.384e-3
1.470,   9.744e-3
1.471,   1.004e-2
1.472,   1.006e-2
1.473,   1.006e-2
1.474,   1.006e-2
1.475,   1.006e-2
1.476,   1.006e-2
1.477,   1.006e-2
1.478,   1.006e-2
1.479,   1.006e-2
1.480,   1.006e-2
1.481,   1.006e-2
1.482,   1.006e-2
1.483,   1.006e-2
1.484,   1.006e-2
1.485,   1.006e-2
1.486,   1.006e-2
1.487,   1.006e-2
1.488,   1.006e-2
1.489,   1.006e-2
1.490,   1.006e-2
1.491,   1.006e-2
1.492,   1.006e-2
1.493,   1.006e-2
1.494,   1.006e-2
1.495,   1.006e-2
1.496,   1.006e-2
1.497,   1.006e-2
1.498,   1.006e-2
1.499,   1.006e-2
1.500,   1.006e-2
1.501,   1.006e-2
1.502,   1.006e-2
1.503,   1.006e-2
1.504,   1.006e-2
1.505,   1.006e-2
1.506,   1.006e-2
1.507,   1.006e-2
1.508,   1.006e-2
1.509,   1.006e-2
1.510,   1.006e-2
1.511,   1.006e-2
1.512,   1.006e-2
1.513,   1.006e-2
1.514,   1.006e-2
1.515,   1.006e-2
1.516,   1.006e-2
1.517,   1.006e-2
1.518,   1.006e-2
1.519,   1.006e-2
1.520,   1.006e-2
1.521,   1.006e-2
1.522,   1.006e-2
1.523,   1.006e-2
1.524,   1.006e-2
1.525,   1.006e-2
1.526,   1.006e-2
1.527,   1.006e-2
1.528,   1.006e-2
1.529,   1.006e-2
1.530,   1.006e-2
1.531,   1.006e-2
1.532,   1.006e-2
1.533,   1.006e-2
1.534,   1.006e-2
1.535,   1.006e-2
1.536,   1.006e-2
1.537,   1.006e-2
1.538,   1.006e-2
1.539,   1.006e-2
1.540,   1.006e-2
1.541,   1.006e-2
1.542,   1.006e-2
1.543,   1.006e-2
1.544,   1.006e-2
1.545,   1.006e-2
1.546,   1.006e-2
1.547,   1.006e-2
1.548,   1.006e-2
1.549,   1.006e-2
1.550,   1.006e-2
1.551,   1.006e-2
1.552,   1.006e-2
1.553,   1.006e-2
1.554,   1.006e-2
1.555,   1.006e-2
1.556,   1.006e-2
1.557,   1.006e-2
1.558,   1.006e-2
1.559,   1.006e-2
1.560,   1.006e-2
1.561,   1.006e-2
1.562,   1.006e-2
1.563,   1.006e-2
1.564,   1.006e-2
1.565,   1.006e-2
1.566,   1.006e-2
1.567,   1.006e-2
1.568,   1.006e-2
1.569,   1.006e-2
1.570,   1.006e-2
1.571,   1.006e-2
1.572,   1.006e-2
1.573,   1.006e-2
1.574,   1.006e-2
1.575,   1.006e-2
1.576,   1.006e-2
1.577,   1.006e-2
1.578,   1.006e-2
1.579,   1.006e-2
1.580,   1.006e-2
1.581,   1.006e-2
1.582,   1.006e-2
1.583,   1.006e-2
1.584,   1.006e-2
1.585,   1.006e-2
1.586,   1.006e-2
1.587,   1.006e-2
1.588,   1.006e-2
1.589,   1.006e-2
1.590,   1.006e-2
1.591,   1.006e-2
1.592,   1.006e-2
1.593,   1.006e-2
1.594,   1.006e-2
1.595,   1.006e-2
1.596,   1.006e-2
1.597,   1.006e-2
1.598,   1.006e-2
1.599,   1.006e-2
1.600,   1.006e-2
1.601,   1.006e-2
1.602,   1.006e-2
1.603,   1.006e-2
1.604,   1.006e-2
1.605,   1.006e-2
1.606,   1.006e-2
1.607,   1.006e-2
1.608,   1.006e-2
1.609,   1.006e-2
1.610,   1.006e-2
1.611,   1.006e-2
1.612,   1.006e-2
1.613,   1.006e-2
1.614,   1.006e-2
1.615,   1.006e-2
1.616,   1.006e-2
1.617,   1.006e-2
1.618,   1.006e-2
1.619,   1.006e-2
1.620,   1.006e-2
1.621,   1.006e-2
1.622,   1.006e-2
1.623,   1.006e-2
1.624,   1.006e-2
1.625,   1.006e-2
1.626,   1.006e-2
1.627,   1.006e-2
1.628,   1.006e-2
1.629,   1.006e-2
1.630,   1.006e-2
1.631,   1.006e-2
1.632,   1.006e-2
1.633,   1.006e-2
1.634,   1.006e-2
1.635,   1.006e-2
1.636,   1.006e-2
1.637,   1.006e-2
1.638,   1.006e-2
1.639,   1.006e-2
1.640,   1.006e-2
1.641,   1.006e-2
1.642,   1.006e-2
1.643,   1.006e-2
1.644,   1.006e-2
1.645,   1.006e-2
1.646,   1.006e-2
1.647,   1.006e-2
1.648,   1.006e-2
1.649,   1.006e-2
1.650,   1.006e-2
1.651,   1.006e-2
1.652,   1.006e-2
1.653,   1.006e-2
1.654,   1.006e-2
1.655,   1.006e-2
1.656,   1.006e-2
1.657,   1.006e-2
1.658,   1.006e-2
1.659,   1.006e-2
1.660,   1.006e-2
1.661,   1.006e-2
1.662,   1.006e-2
1.663,   1.006e-2
1.664,   1.006e-2
1.665,   1.006e-2
1.666,   1.006e-2
1.667,   1.006e-2
1.668,   1.006e-2
1.669,   1.006e-2
1.670,   1.006e-2
1.671,   1.006e-2
1.672,   1.006e-2
1.673,   1.006e-2
1.674,   1.006e-2
1.675,   1.006e-2
1.676,   1.006e-2
1.677,   1.006e-2
1.678,   1.006e-2
1.679,   1.006e-2
1.680,   1.006e-2
1.681,   1.006e-2
1.682,   1.006e-2
1.683,   1.006e-2
1.684,   1.006e-2
1.685,   1.006e-2
1.686,   1.006e-2
1.687,   1.006e-2
1.688,   1.006e-2
1.689,   1.006e-2
1.690,   1.006e-2
1.691,   1.006e-2
1.692,   1.006e-2
1.693,   1.006e-2
1.694,   1.006e-2
1.695,   1.006e-2
1.696,   1.006e-2
1.697,   1.006e-2
1.698,   1.006e-2
1.699,   1.006e-2
1.700,   1.006e-2
1.701,   1.006e-2
1.702,   1.006e-2
1.703,   1.006e-2
1.704,   1.006e-2
1.705,   1.006e-2
1.706,   1.006e-2
1.707,   1.006e-2
1.708,   1.006e-2
1.709,   1.006e-2
1.710,   1.006e-2
1.711,   1.006e-2
1.712,   1.006e-2
1.713,   1.006e-2
1.714,   1.006e-2
1.715,   1.006e-2
1.716,   1.006e-2
1.717,   1.006e-2
1.718,   1.006e-2
1.719,   1.006e-2
1.720,   1.006e-2
1.721,   1.006e-2
1.722,   1.006e-2
1.723,   1.006e-2
1.724,   1.006e-2
1.725,   1.006e-2
1.726,   1.006e-2
1.727,   1.006e-2
1.728,   1.006e-2
1.729,   1.006e-2
1.730,   1.006e-2
1.731,   1.006e-2
1.732,   1.006e-2
1.733,   1.006e-2
1.734,   1.006e-2
1.735,   1.006e-2
1.736,   1.006e-2
1.737,   1.006e-2
1.738,   1.006e-2
1.739,   1.006e-2
1.740,   1.006e-2
1.741,   1.006e-2
1.742,   1.006e-2
1.743,   1.006e-2
1.744,   1.006e-2
1.745,   1.006e-2
1.746,   1.006e-2
1.747,   1.006e-2
1.748,   1.006e-2
1.749,   1.006e-2
1.750,   1.006e-2
1.751,   1.006e-2
1.752,   1.006e-2
1.753,   1.006e-2
1.754,   1.006e-2
1.755,   1.006e-2
1.756,   1.006e-2
1.757,   1.006e-2
1.758,   1.006e-2
1.759,   1.006e-2
1.760,   1.006e-2
1.761,   1.006e-2
1.762,   1.006e-2
1.763,   1.006e-2
1.764,   1.006e-2
1.765,   1.006e-2
1.766,   1.006e-2
1.767,   1.006e-2
1.768,   1.006e-2
1.769,   1.006e-2
1.770,   1.006e-2
1.771,   1.006e-2
1.772,   1.006e-2
1.773,   1.006e-2
1.774,   1.006e-2
1.775,   1.006e-2
1.776,   1.006e-2
1.777,   1.006e-2
1.778,   1.006e-2
1.779,   1.006e-2
1.780,   1.006e-2
1.781,   1.006e-2
1.782,   1.006e-2
1.783,   1.006e-2
1.784,   1.006e-2
1.785,   1.006e-2
1.786,   1.006e-2
1.787,   1.006e-2
1.788,   1.006e-2
1.789,   1.006e-2
1.790,   1.006e-2
1.791,   1.006e-2
1.792,   1.006e-2
1.793,   1.006e-2
1.794,   1.006e-2
1.795,   1.006e-2
1.796,   1.006e-2
1.797,   1.006e-2
1.798,   1.006e-2