File: Experimental Records, Raw Data, and Supplementary Notes and Figures/batch2/final400/B2_VARIANCE_400#1_Full-262mV.txt
Jan. 13, 2023   14:45:23
Linear Sweep Voltammetry
File: d:\current work\al_oer\electrochemical test data\batch 2\400\B2_VARIANCE_400#1_Full-262mV.txt
Data Source:  Experiment
Instrument Model:  CHI660E
Header:
Note:

Init E (V) = 1.099

Final E (V) = 1.580

Scan Rate (V/s) = 0.010
Sample Interval (V) = 0.001
Quiet Time (sec) = 2
Sensitivity (A/V) = 0.001
Comp R (ohm) = 6.0

Results:

Channel 1:

Potential/V, Current/A
1.099,   2.022e-4
1.100,   1.901e-4
1.101,   1.775e-4
1.102,   1.658e-4
1.103,   1.553e-4
1.104,   1.460e-4
1.105,   1.378e-4
1.106,   1.306e-4
1.107,   1.241e-4
1.108,   1.182e-4
1.109,   1.129e-4
1.110,   1.081e-4
1.111,   1.037e-4
1.112,   9.964e-5
1.113,   9.594e-5
1.114,   9.268e-5
1.115,   8.948e-5
1.116,   8.668e-5
1.117,   8.406e-5
1.118,   8.163e-5
1.119,   7.944e-5
1.120,   7.741e-5
1.121,   7.533e-5
1.122,   7.340e-5
1.123,   7.161e-5
1.124,   7.007e-5
1.125,   6.864e-5
1.126,   6.726e-5
1.127,   6.597e-5
1.128,   6.476e-5
1.129,   6.357e-5
1.130,   6.244e-5
1.131,   6.132e-5
1.132,   6.043e-5
1.133,   5.952e-5
1.134,   5.866e-5
1.135,   5.787e-5
1.136,   5.705e-5
1.137,   5.631e-5
1.138,   5.566e-5
1.139,   5.498e-5
1.140,   5.438e-5
1.141,   5.379e-5
1.142,   5.317e-5
1.143,   5.268e-5
1.144,   5.208e-5
1.145,   5.166e-5
1.146,   5.121e-5
1.147,   5.074e-5
1.148,   5.029e-5
1.149,   4.990e-5
1.150,   4.953e-5
1.151,   4.916e-5
1.152,   4.878e-5
1.153,   4.849e-5
1.154,   4.816e-5
1.155,   4.783e-5
1.156,   4.756e-5
1.157,   4.732e-5
1.158,   4.712e-5
1.159,   4.689e-5
1.160,   4.657e-5
1.161,   4.633e-5
1.162,   4.616e-5
1.163,   4.589e-5
1.164,   4.573e-5
1.165,   4.561e-5
1.166,   4.532e-5
1.167,   4.514e-5
1.168,   4.493e-5
1.169,   4.479e-5
1.170,   4.468e-5
1.171,   4.453e-5
1.172,   4.437e-5
1.173,   4.425e-5
1.174,   4.405e-5
1.175,   4.397e-5
1.176,   4.386e-5
1.177,   4.376e-5
1.178,   4.368e-5
1.179,   4.350e-5
1.180,   4.346e-5
1.181,   4.333e-5
1.182,   4.319e-5
1.183,   4.318e-5
1.184,   4.309e-5
1.185,   4.298e-5
1.186,   4.295e-5
1.187,   4.283e-5
1.188,   4.279e-5
1.189,   4.275e-5
1.190,   4.269e-5
1.191,   4.261e-5
1.192,   4.256e-5
1.193,   4.251e-5
1.194,   4.249e-5
1.195,   4.243e-5
1.196,   4.242e-5
1.197,   4.243e-5
1.198,   4.238e-5
1.199,   4.235e-5
1.200,   4.231e-5
1.201,   4.221e-5
1.202,   4.220e-5
1.203,   4.216e-5
1.204,   4.218e-5
1.205,   4.216e-5
1.206,   4.213e-5
1.207,   4.214e-5
1.208,   4.209e-5
1.209,   4.211e-5
1.210,   4.213e-5
1.211,   4.202e-5
1.212,   4.204e-5
1.213,   4.206e-5
1.214,   4.203e-5
1.215,   4.206e-5
1.216,   4.205e-5
1.217,   4.202e-5
1.218,   4.209e-5
1.219,   4.204e-5
1.220,   4.204e-5
1.221,   4.198e-5
1.222,   4.204e-5
1.223,   4.205e-5
1.224,   4.202e-5
1.225,   4.200e-5
1.226,   4.205e-5
1.227,   4.200e-5
1.228,   4.202e-5
1.229,   4.205e-5
1.230,   4.202e-5
1.231,   4.208e-5
1.232,   4.200e-5
1.233,   4.201e-5
1.234,   4.205e-5
1.235,   4.208e-5
1.236,   4.210e-5
1.237,   4.208e-5
1.238,   4.206e-5
1.239,   4.209e-5
1.240,   4.208e-5
1.241,   4.209e-5
1.242,   4.216e-5
1.243,   4.209e-5
1.244,   4.215e-5
1.245,   4.218e-5
1.246,   4.216e-5
1.247,   4.219e-5
1.248,   4.220e-5
1.249,   4.219e-5
1.250,   4.215e-5
1.251,   4.214e-5
1.252,   4.216e-5
1.253,   4.220e-5
1.254,   4.222e-5
1.255,   4.223e-5
1.256,   4.224e-5
1.257,   4.224e-5
1.258,   4.229e-5
1.259,   4.224e-5
1.260,   4.224e-5
1.261,   4.231e-5
1.262,   4.227e-5
1.263,   4.232e-5
1.264,   4.228e-5
1.265,   4.226e-5
1.266,   4.236e-5
1.267,   4.231e-5
1.268,   4.235e-5
1.269,   4.239e-5
1.270,   4.235e-5
1.271,   4.238e-5
1.272,   4.239e-5
1.273,   4.249e-5
1.274,   4.251e-5
1.275,   4.247e-5
1.276,   4.248e-5
1.277,   4.249e-5
1.278,   4.249e-5
1.279,   4.253e-5
1.280,   4.252e-5
1.281,   4.251e-5
1.282,   4.257e-5
1.283,   4.251e-5
1.284,   4.254e-5
1.285,   4.253e-5
1.286,   4.258e-5
1.287,   4.262e-5
1.288,   4.258e-5
1.289,   4.261e-5
1.290,   4.262e-5
1.291,   4.258e-5
1.292,   4.265e-5
1.293,   4.267e-5
1.294,   4.269e-5
1.295,   4.272e-5
1.296,   4.274e-5
1.297,   4.276e-5
1.298,   4.283e-5
1.299,   4.281e-5
1.300,   4.284e-5
1.301,   4.289e-5
1.302,   4.290e-5
1.303,   4.292e-5
1.304,   4.284e-5
1.305,   4.290e-5
1.306,   4.296e-5
1.307,   4.287e-5
1.308,   4.296e-5
1.309,   4.302e-5
1.310,   4.301e-5
1.311,   4.310e-5
1.312,   4.309e-5
1.313,   4.312e-5
1.314,   4.323e-5
1.315,   4.320e-5
1.316,   4.323e-5
1.317,   4.329e-5
1.318,   4.333e-5
1.319,   4.337e-5
1.320,   4.332e-5
1.321,   4.343e-5
1.322,   4.345e-5
1.323,   4.342e-5
1.324,   4.361e-5
1.325,   4.369e-5
1.326,   4.362e-5
1.327,   4.374e-5
1.328,   4.372e-5
1.329,   4.378e-5
1.330,   4.386e-5
1.331,   4.386e-5
1.332,   4.393e-5
1.333,   4.399e-5
1.334,   4.403e-5
1.335,   4.414e-5
1.336,   4.417e-5
1.337,   4.426e-5
1.338,   4.437e-5
1.339,   4.437e-5
1.340,   4.440e-5
1.341,   4.447e-5
1.342,   4.455e-5
1.343,   4.470e-5
1.344,   4.478e-5
1.345,   4.487e-5
1.346,   4.495e-5
1.347,   4.506e-5
1.348,   4.518e-5
1.349,   4.532e-5
1.350,   4.549e-5
1.351,   4.563e-5
1.352,   4.572e-5
1.353,   4.587e-5
1.354,   4.608e-5
1.355,   4.617e-5
1.356,   4.637e-5
1.357,   4.656e-5
1.358,   4.673e-5
1.359,   4.694e-5
1.360,   4.713e-5
1.361,   4.734e-5
1.362,   4.766e-5
1.363,   4.787e-5
1.364,   4.813e-5
1.365,   4.841e-5
1.366,   4.868e-5
1.367,   4.901e-5
1.368,   4.937e-5
1.369,   4.974e-5
1.370,   5.015e-5
1.371,   5.046e-5
1.372,   5.091e-5
1.373,   5.140e-5
1.374,   5.182e-5
1.375,   5.238e-5
1.376,   5.296e-5
1.377,   5.356e-5
1.378,   5.420e-5
1.379,   5.478e-5
1.380,   5.551e-5
1.381,   5.623e-5
1.382,   5.693e-5
1.383,   5.781e-5
1.384,   5.870e-5
1.385,   5.968e-5
1.386,   6.072e-5
1.387,   6.179e-5
1.388,   6.296e-5
1.389,   6.418e-5
1.390,   6.532e-5
1.391,   6.670e-5
1.392,   6.814e-5
1.393,   6.966e-5
1.394,   7.141e-5
1.395,   7.307e-5
1.396,   7.492e-5
1.397,   7.696e-5
1.398,   7.895e-5
1.399,   8.112e-5
1.400,   8.330e-5
1.401,   8.562e-5
1.402,   8.824e-5
1.403,   9.081e-5
1.404,   9.358e-5
1.405,   9.648e-5
1.406,   9.950e-5
1.407,   1.028e-4
1.408,   1.062e-4
1.409,   1.098e-4
1.410,   1.136e-4
1.411,   1.175e-4
1.412,   1.217e-4
1.413,   1.260e-4
1.414,   1.306e-4
1.415,   1.354e-4
1.416,   1.403e-4
1.417,   1.455e-4
1.418,   1.510e-4
1.419,   1.567e-4
1.420,   1.628e-4
1.421,   1.692e-4
1.422,   1.758e-4
1.423,   1.825e-4
1.424,   1.895e-4
1.425,   1.968e-4
1.426,   2.045e-4
1.427,   2.125e-4
1.428,   2.207e-4
1.429,   2.294e-4
1.430,   2.384e-4
1.431,   2.479e-4
1.432,   2.576e-4
1.433,   2.677e-4
1.434,   2.783e-4
1.435,   2.891e-4
1.436,   3.002e-4
1.437,   3.119e-4
1.438,   3.238e-4
1.439,   3.366e-4
1.440,   3.497e-4
1.441,   3.629e-4
1.442,   3.767e-4
1.443,   3.912e-4
1.444,   4.063e-4
1.445,   4.218e-4
1.446,   4.377e-4
1.447,   4.544e-4
1.448,   4.713e-4
1.449,   4.890e-4
1.450,   5.073e-4
1.451,   5.263e-4
1.452,   5.458e-4
1.453,   5.667e-4
1.454,   5.871e-4
1.455,   6.081e-4
1.456,   6.299e-4
1.457,   6.523e-4
1.458,   6.749e-4
1.459,   6.983e-4
1.460,   7.230e-4
1.461,   7.490e-4
1.462,   7.746e-4
1.463,   8.011e-4
1.464,   8.274e-4
1.465,   8.556e-4
1.466,   8.837e-4
1.467,   9.121e-4
1.468,   9.413e-4
1.469,   9.720e-4
1.470,   1.003e-3
1.471,   1.036e-3
1.472,   1.069e-3
1.473,   1.102e-3
1.474,   1.138e-3
1.475,   1.173e-3
1.476,   1.208e-3
1.477,   1.245e-3
1.478,   1.282e-3
1.479,   1.321e-3
1.480,   1.360e-3
1.481,   1.399e-3
1.482,   1.441e-3
1.483,   1.484e-3
1.484,   1.526e-3
1.485,   1.570e-3
1.486,   1.615e-3
1.487,   1.662e-3
1.488,   1.710e-3
1.489,   1.757e-3
1.490,   1.804e-3
1.491,   1.852e-3
1.492,   1.903e-3
1.493,   1.957e-3
1.494,   2.009e-3
1.495,   2.060e-3
1.496,   2.112e-3
1.497,   2.168e-3
1.498,   2.221e-3
1.499,   2.275e-3
1.500,   2.332e-3
1.501,   2.389e-3
1.502,   2.450e-3
1.503,   2.508e-3
1.504,   2.570e-3
1.505,   2.630e-3
1.506,   2.693e-3
1.507,   2.756e-3
1.508,   2.821e-3
1.509,   2.885e-3
1.510,   2.951e-3
1.511,   3.019e-3
1.512,   3.089e-3
1.513,   3.159e-3
1.514,   3.227e-3
1.515,   3.296e-3
1.516,   3.369e-3
1.517,   3.440e-3
1.518,   3.513e-3
1.519,   3.586e-3
1.520,   3.664e-3
1.521,   3.741e-3
1.522,   3.822e-3
1.523,   3.901e-3
1.524,   3.980e-3
1.525,   4.065e-3
1.526,   4.146e-3
1.527,   4.233e-3
1.528,   4.320e-3
1.529,   4.405e-3
1.530,   4.494e-3
1.531,   4.582e-3
1.532,   4.673e-3
1.533,   4.760e-3
1.534,   4.852e-3
1.535,   4.948e-3
1.536,   5.040e-3
1.537,   5.136e-3
1.538,   5.235e-3
1.539,   5.334e-3
1.540,   5.434e-3
1.541,   5.534e-3
1.542,   5.635e-3
1.543,   5.736e-3
1.544,   5.834e-3
1.545,   5.939e-3
1.546,   6.047e-3
1.547,   6.154e-3
1.548,   6.265e-3
1.549,   6.374e-3
1.550,   6.493e-3
1.551,   6.598e-3
1.552,   6.711e-3
1.553,   6.827e-3
1.554,   6.943e-3
1.555,   7.062e-3
1.556,   7.171e-3
1.557,   7.284e-3
1.558,   7.402e-3
1.559,   7.531e-3
1.560,   7.654e-3
1.561,   7.775e-3
1.562,   7.911e-3
1.563,   8.037e-3
1.564,   8.153e-3
1.565,   8.302e-3
1.566,   8.447e-3
1.567,   8.578e-3
1.568,   8.700e-3
1.569,   8.833e-3
1.570,   9.009e-3
1.571,   9.244e-3
1.572,   9.395e-3
1.573,   9.528e-3
1.574,   9.653e-3
1.575,   9.778e-3
1.576,   9.908e-3
1.577,   1.003e-2
1.578,   1.006e-2
1.579,   1.006e-2
1.580,   1.006e-2