File: Experimental Records, Raw Data, and Supplementary Notes and Figures/batch5/final500/B5_BEST_500_#1_High_Quality(#20)-215mV.txt
June 9, 2023   14:27:16
Linear Sweep Voltammetry
File: d:\current work\al_oer\electrochemical test data\batch 5\500\B5_BEST_500_#1_High_Quality(#20)-215mV.txt
Data Source:  Experiment
Instrument Model:  CHI660E
Header:
Note:

Init E (V) = 0.890

Final E (V) = 1.532

Scan Rate (V/s) = 0.010
Sample Interval (V) = 0.001
Quiet Time (sec) = 2
Sensitivity (A/V) = 0.001

Results:

Channel 1:

Potential/V, Current/A
0.890,   2.532e-4
0.891,   3.210e-4
0.892,   3.369e-4
0.893,   3.493e-4
0.894,   3.532e-4
0.895,   3.545e-4
0.896,   3.517e-4
0.897,   3.495e-4
0.898,   3.497e-4
0.899,   3.477e-4
0.900,   3.488e-4
0.901,   3.475e-4
0.902,   3.459e-4
0.903,   3.436e-4
0.904,   3.388e-4
0.905,   3.380e-4
0.906,   3.415e-4
0.907,   3.373e-4
0.908,   3.368e-4
0.909,   3.335e-4
0.910,   3.286e-4
0.911,   3.332e-4
0.912,   3.317e-4
0.913,   3.269e-4
0.914,   3.272e-4
0.915,   3.246e-4
0.916,   3.223e-4
0.917,   3.240e-4
0.918,   3.242e-4
0.919,   3.202e-4
0.920,   3.200e-4
0.921,   3.180e-4
0.922,   3.164e-4
0.923,   3.187e-4
0.924,   3.178e-4
0.925,   3.148e-4
0.926,   3.129e-4
0.927,   3.097e-4
0.928,   3.117e-4
0.929,   3.131e-4
0.930,   3.115e-4
0.931,   3.101e-4
0.932,   3.095e-4
0.933,   3.063e-4
0.934,   3.050e-4
0.935,   3.052e-4
0.936,   3.044e-4
0.937,   3.042e-4
0.938,   3.033e-4
0.939,   2.990e-4
0.940,   2.983e-4
0.941,   2.998e-4
0.942,   2.990e-4
0.943,   2.984e-4
0.944,   2.972e-4
0.945,   2.949e-4
0.946,   2.968e-4
0.947,   2.959e-4
0.948,   2.948e-4
0.949,   2.950e-4
0.950,   2.941e-4
0.951,   2.920e-4
0.952,   2.933e-4
0.953,   2.920e-4
0.954,   2.900e-4
0.955,   2.913e-4
0.956,   2.894e-4
0.957,   2.880e-4
0.958,   2.895e-4
0.959,   2.891e-4
0.960,   2.873e-4
0.961,   2.868e-4
0.962,   2.861e-4
0.963,   2.861e-4
0.964,   2.873e-4
0.965,   2.857e-4
0.966,   2.841e-4
0.967,   2.835e-4
0.968,   2.812e-4
0.969,   2.830e-4
0.970,   2.844e-4
0.971,   2.819e-4
0.972,   2.821e-4
0.973,   2.815e-4
0.974,   2.813e-4
0.975,   2.800e-4
0.976,   2.797e-4
0.977,   2.785e-4
0.978,   2.791e-4
0.979,   2.773e-4
0.980,   2.766e-4
0.981,   2.788e-4
0.982,   2.790e-4
0.983,   2.772e-4
0.984,   2.773e-4
0.985,   2.749e-4
0.986,   2.752e-4
0.987,   2.788e-4
0.988,   2.779e-4
0.989,   2.763e-4
0.990,   2.757e-4
0.991,   2.733e-4
0.992,   2.740e-4
0.993,   2.761e-4
0.994,   2.738e-4
0.995,   2.748e-4
0.996,   2.718e-4
0.997,   2.721e-4
0.998,   2.737e-4
0.999,   2.729e-4
1.000,   2.729e-4
1.001,   2.693e-4
1.002,   2.700e-4
1.003,   2.729e-4
1.004,   2.715e-4
1.005,   2.719e-4
1.006,   2.706e-4
1.007,   2.707e-4
1.008,   2.727e-4
1.009,   2.702e-4
1.010,   2.710e-4
1.011,   2.690e-4
1.012,   2.677e-4
1.013,   2.692e-4
1.014,   2.703e-4
1.015,   2.707e-4
1.016,   2.679e-4
1.017,   2.688e-4
1.018,   2.717e-4
1.019,   2.697e-4
1.020,   2.695e-4
1.021,   2.684e-4
1.022,   2.673e-4
1.023,   2.698e-4
1.024,   2.687e-4
1.025,   2.690e-4
1.026,   2.687e-4
1.027,   2.661e-4
1.028,   2.691e-4
1.029,   2.667e-4
1.030,   2.675e-4
1.031,   2.656e-4
1.032,   2.689e-4
1.033,   2.685e-4
1.034,   2.691e-4
1.035,   2.655e-4
1.036,   2.683e-4
1.037,   2.681e-4
1.038,   2.681e-4
1.039,   2.681e-4
1.040,   2.688e-4
1.041,   2.677e-4
1.042,   2.683e-4
1.043,   2.655e-4
1.044,   2.680e-4
1.045,   2.689e-4
1.046,   2.677e-4
1.047,   2.654e-4
1.048,   2.678e-4
1.049,   2.677e-4
1.050,   2.683e-4
1.051,   2.658e-4
1.052,   2.688e-4
1.053,   2.689e-4
1.054,   2.688e-4
1.055,   2.674e-4
1.056,   2.690e-4
1.057,   2.690e-4
1.058,   2.707e-4
1.059,   2.679e-4
1.060,   2.696e-4
1.061,   2.699e-4
1.062,   2.704e-4
1.063,   2.678e-4
1.064,   2.701e-4
1.065,   2.690e-4
1.066,   2.698e-4
1.067,   2.680e-4
1.068,   2.702e-4
1.069,   2.710e-4
1.070,   2.704e-4
1.071,   2.683e-4
1.072,   2.708e-4
1.073,   2.728e-4
1.074,   2.734e-4
1.075,   2.687e-4
1.076,   2.704e-4
1.077,   2.730e-4
1.078,   2.731e-4
1.079,   2.701e-4
1.080,   2.732e-4
1.081,   2.743e-4
1.082,   2.735e-4
1.083,   2.702e-4
1.084,   2.727e-4
1.085,   2.752e-4
1.086,   2.740e-4
1.087,   2.725e-4
1.088,   2.740e-4
1.089,   2.761e-4
1.090,   2.754e-4
1.091,   2.733e-4
1.092,   2.755e-4
1.093,   2.775e-4
1.094,   2.771e-4
1.095,   2.751e-4
1.096,   2.766e-4
1.097,   2.787e-4
1.098,   2.786e-4
1.099,   2.772e-4
1.100,   2.786e-4
1.101,   2.790e-4
1.102,   2.803e-4
1.103,   2.794e-4
1.104,   2.809e-4
1.105,   2.823e-4
1.106,   2.802e-4
1.107,   2.785e-4
1.108,   2.810e-4
1.109,   2.841e-4
1.110,   2.846e-4
1.111,   2.830e-4
1.112,   2.824e-4
1.113,   2.847e-4
1.114,   2.858e-4
1.115,   2.846e-4
1.116,   2.854e-4
1.117,   2.890e-4
1.118,   2.883e-4
1.119,   2.864e-4
1.120,   2.862e-4
1.121,   2.893e-4
1.122,   2.896e-4
1.123,   2.881e-4
1.124,   2.882e-4
1.125,   2.915e-4
1.126,   2.924e-4
1.127,   2.904e-4
1.128,   2.885e-4
1.129,   2.934e-4
1.130,   2.965e-4
1.131,   2.938e-4
1.132,   2.931e-4
1.133,   2.957e-4
1.134,   2.939e-4
1.135,   2.946e-4
1.136,   2.958e-4
1.137,   2.962e-4
1.138,   2.979e-4
1.139,   2.969e-4
1.140,   2.951e-4
1.141,   2.978e-4
1.142,   2.973e-4
1.143,   2.979e-4
1.144,   2.972e-4
1.145,   3.006e-4
1.146,   3.000e-4
1.147,   3.015e-4
1.148,   3.000e-4
1.149,   3.033e-4
1.150,   3.031e-4
1.151,   3.042e-4
1.152,   3.026e-4
1.153,   3.058e-4
1.154,   3.071e-4
1.155,   3.067e-4
1.156,   3.054e-4
1.157,   3.105e-4
1.158,   3.089e-4
1.159,   3.077e-4
1.160,   3.069e-4
1.161,   3.113e-4
1.162,   3.123e-4
1.163,   3.100e-4
1.164,   3.102e-4
1.165,   3.149e-4
1.166,   3.137e-4
1.167,   3.159e-4
1.168,   3.156e-4
1.169,   3.181e-4
1.170,   3.184e-4
1.171,   3.169e-4
1.172,   3.165e-4
1.173,   3.209e-4
1.174,   3.200e-4
1.175,   3.210e-4
1.176,   3.187e-4
1.177,   3.243e-4
1.178,   3.241e-4
1.179,   3.255e-4
1.180,   3.236e-4
1.181,   3.287e-4
1.182,   3.304e-4
1.183,   3.295e-4
1.184,   3.259e-4
1.185,   3.314e-4
1.186,   3.310e-4
1.187,   3.332e-4
1.188,   3.309e-4
1.189,   3.334e-4
1.190,   3.345e-4
1.191,   3.363e-4
1.192,   3.338e-4
1.193,   3.383e-4
1.194,   3.380e-4
1.195,   3.383e-4
1.196,   3.366e-4
1.197,   3.405e-4
1.198,   3.403e-4
1.199,   3.432e-4
1.200,   3.413e-4
1.201,   3.441e-4
1.202,   3.442e-4
1.203,   3.462e-4
1.204,   3.448e-4
1.205,   3.503e-4
1.206,   3.506e-4
1.207,   3.524e-4
1.208,   3.468e-4
1.209,   3.521e-4
1.210,   3.540e-4
1.211,   3.534e-4
1.212,   3.532e-4
1.213,   3.561e-4
1.214,   3.565e-4
1.215,   3.603e-4
1.216,   3.561e-4
1.217,   3.601e-4
1.218,   3.622e-4
1.219,   3.659e-4
1.220,   3.628e-4
1.221,   3.651e-4
1.222,   3.648e-4
1.223,   3.668e-4
1.224,   3.642e-4
1.225,   3.678e-4
1.226,   3.700e-4
1.227,   3.718e-4
1.228,   3.695e-4
1.229,   3.719e-4
1.230,   3.737e-4
1.231,   3.758e-4
1.232,   3.735e-4
1.233,   3.771e-4
1.234,   3.785e-4
1.235,   3.796e-4
1.236,   3.751e-4
1.237,   3.795e-4
1.238,   3.808e-4
1.239,   3.836e-4
1.240,   3.812e-4
1.241,   3.842e-4
1.242,   3.852e-4
1.243,   3.871e-4
1.244,   3.854e-4
1.245,   3.877e-4
1.246,   3.876e-4
1.247,   3.907e-4
1.248,   3.886e-4
1.249,   3.905e-4
1.250,   3.929e-4
1.251,   3.971e-4
1.252,   3.943e-4
1.253,   3.970e-4
1.254,   3.955e-4
1.255,   3.995e-4
1.256,   3.958e-4
1.257,   4.014e-4
1.258,   4.019e-4
1.259,   4.023e-4
1.260,   3.993e-4
1.261,   4.041e-4
1.262,   4.068e-4
1.263,   4.084e-4
1.264,   4.034e-4
1.265,   4.069e-4
1.266,   4.082e-4
1.267,   4.138e-4
1.268,   4.071e-4
1.269,   4.087e-4
1.270,   4.111e-4
1.271,   4.134e-4
1.272,   4.089e-4
1.273,   4.126e-4
1.274,   4.156e-4
1.275,   4.177e-4
1.276,   4.154e-4
1.277,   4.173e-4
1.278,   4.189e-4
1.279,   4.215e-4
1.280,   4.196e-4
1.281,   4.217e-4
1.282,   4.241e-4
1.283,   4.238e-4
1.284,   4.227e-4
1.285,   4.234e-4
1.286,   4.237e-4
1.287,   4.281e-4
1.288,   4.259e-4
1.289,   4.269e-4
1.290,   4.294e-4
1.291,   4.320e-4
1.292,   4.319e-4
1.293,   4.307e-4
1.294,   4.331e-4
1.295,   4.336e-4
1.296,   4.360e-4
1.297,   4.351e-4
1.298,   4.335e-4
1.299,   4.352e-4
1.300,   4.368e-4
1.301,   4.362e-4
1.302,   4.371e-4
1.303,   4.407e-4
1.304,   4.411e-4
1.305,   4.401e-4
1.306,   4.414e-4
1.307,   4.436e-4
1.308,   4.448e-4
1.309,   4.452e-4
1.310,   4.459e-4
1.311,   4.476e-4
1.312,   4.474e-4
1.313,   4.498e-4
1.314,   4.525e-4
1.315,   4.520e-4
1.316,   4.504e-4
1.317,   4.511e-4
1.318,   4.552e-4
1.319,   4.554e-4
1.320,   4.548e-4
1.321,   4.565e-4
1.322,   4.601e-4
1.323,   4.601e-4
1.324,   4.602e-4
1.325,   4.607e-4
1.326,   4.629e-4
1.327,   4.630e-4
1.328,   4.640e-4
1.329,   4.648e-4
1.330,   4.709e-4
1.331,   4.722e-4
1.332,   4.718e-4
1.333,   4.704e-4
1.334,   4.759e-4
1.335,   4.775e-4
1.336,   4.768e-4
1.337,   4.761e-4
1.338,   4.827e-4
1.339,   4.823e-4
1.340,   4.812e-4
1.341,   4.794e-4
1.342,   4.852e-4
1.343,   4.869e-4
1.344,   4.868e-4
1.345,   4.884e-4
1.346,   4.967e-4
1.347,   4.956e-4
1.348,   4.981e-4
1.349,   4.970e-4
1.350,   5.004e-4
1.351,   4.990e-4
1.352,   4.990e-4
1.353,   4.994e-4
1.354,   5.071e-4
1.355,   5.083e-4
1.356,   5.108e-4
1.357,   5.077e-4
1.358,   5.129e-4
1.359,   5.148e-4
1.360,   5.174e-4
1.361,   5.144e-4
1.362,   5.215e-4
1.363,   5.274e-4
1.364,   5.246e-4
1.365,   5.256e-4
1.366,   5.335e-4
1.367,   5.347e-4
1.368,   5.377e-4
1.369,   5.380e-4
1.370,   5.450e-4
1.371,   5.473e-4
1.372,   5.500e-4
1.373,   5.545e-4
1.374,   5.575e-4
1.375,   5.589e-4
1.376,   5.619e-4
1.377,   5.660e-4
1.378,   5.675e-4
1.379,   5.731e-4
1.380,   5.765e-4
1.381,   5.853e-4
1.382,   5.891e-4
1.383,   5.907e-4
1.384,   5.940e-4
1.385,   5.992e-4
1.386,   6.046e-4
1.387,   6.006e-4
1.388,   6.145e-4
1.389,   6.169e-4
1.390,   6.257e-4
1.391,   6.278e-4
1.392,   6.334e-4
1.393,   6.402e-4
1.394,   6.467e-4
1.395,   6.445e-4
1.396,   6.563e-4
1.397,   6.630e-4
1.398,   6.754e-4
1.399,   6.815e-4
1.400,   6.897e-4
1.401,   6.924e-4
1.402,   7.039e-4
1.403,   7.148e-4
1.404,   7.249e-4
1.405,   7.297e-4
1.406,   7.474e-4
1.407,   7.561e-4
1.408,   7.669e-4
1.409,   7.728e-4
1.410,   7.950e-4
1.411,   8.045e-4
1.412,   8.297e-4
1.413,   8.381e-4
1.414,   8.544e-4
1.415,   8.675e-4
1.416,   8.848e-4
1.417,   9.000e-4
1.418,   9.308e-4
1.419,   9.420e-4
1.420,   9.634e-4
1.421,   9.753e-4
1.422,   1.006e-3
1.423,   1.033e-3
1.424,   1.066e-3
1.425,   1.085e-3
1.426,   1.117e-3
1.427,   1.145e-3
1.428,   1.174e-3
1.429,   1.194e-3
1.430,   1.238e-3
1.431,   1.278e-3
1.432,   1.299e-3
1.433,   1.337e-3
1.434,   1.386e-3
1.435,   1.415e-3
1.436,   1.463e-3
1.437,   1.503e-3
1.438,   1.556e-3
1.439,   1.599e-3
1.440,   1.648e-3
1.441,   1.690e-3
1.442,   1.749e-3
1.443,   1.795e-3
1.444,   1.831e-3
1.445,   1.884e-3
1.446,   1.953e-3
1.447,   2.018e-3
1.448,   2.106e-3
1.449,   2.151e-3
1.450,   2.225e-3
1.451,   2.290e-3
1.452,   2.362e-3
1.453,   2.417e-3
1.454,   2.495e-3
1.455,   2.569e-3
1.456,   2.627e-3
1.457,   2.674e-3
1.458,   2.780e-3
1.459,   2.857e-3
1.460,   2.943e-3
1.461,   2.992e-3
1.462,   3.077e-3
1.463,   3.180e-3
1.464,   3.254e-3
1.465,   3.310e-3
1.466,   3.427e-3
1.467,   3.543e-3
1.468,   3.638e-3
1.469,   3.697e-3
1.470,   3.801e-3
1.471,   3.919e-3
1.472,   4.029e-3
1.473,   4.098e-3
1.474,   4.221e-3
1.475,   4.343e-3
1.476,   4.455e-3
1.477,   4.531e-3
1.478,   4.651e-3
1.479,   4.768e-3
1.480,   4.873e-3
1.481,   4.950e-3
1.482,   5.066e-3
1.483,   5.150e-3
1.484,   5.242e-3
1.485,   5.348e-3
1.486,   5.485e-3
1.487,   5.621e-3
1.488,   5.730e-3
1.489,   5.811e-3
1.490,   5.918e-3
1.491,   6.037e-3
1.492,   6.124e-3
1.493,   6.179e-3
1.494,   6.320e-3
1.495,   6.470e-3
1.496,   6.594e-3
1.497,   6.650e-3
1.498,   6.790e-3
1.499,   6.944e-3
1.500,   7.055e-3
1.501,   7.167e-3
1.502,   7.283e-3
1.503,   7.449e-3
1.504,   7.557e-3
1.505,   7.609e-3
1.506,   7.751e-3
1.507,   7.948e-3
1.508,   8.079e-3
1.509,   8.125e-3
1.510,   8.216e-3
1.511,   8.389e-3
1.512,   8.533e-3
1.513,   8.553e-3
1.514,   8.686e-3
1.515,   8.901e-3
1.516,   9.047e-3
1.517,   9.108e-3
1.518,   9.225e-3
1.519,   9.398e-3
1.520,   9.503e-3
1.521,   9.527e-3
1.522,   9.622e-3
1.523,   9.796e-3
1.524,   9.870e-3
1.525,   9.957e-3
1.526,   1.002e-2
1.527,   1.006e-2
1.528,   1.007e-2
1.529,   1.007e-2
1.530,   1.007e-2
1.531,   1.007e-2
1.532,   1.007e-2