File: Experimental Records, Raw Data, and Supplementary Notes and Figures/batch5/final500/B5_BEST_500_#1_High_Quality(#29)-217mV.txt
June 9, 2023   15:28:53
Linear Sweep Voltammetry
File: d:\current work\al_oer\electrochemical test data\batch 5\500\B5_BEST_500_#1_High_Quality(#29)-217mV.txt
Data Source:  Experiment
Instrument Model:  CHI660E
Header:
Note:

Init E (V) = 0.888

Final E (V) = 1.505

Scan Rate (V/s) = 0.010
Sample Interval (V) = 0.001
Quiet Time (sec) = 2
Sensitivity (A/V) = 0.001
Comp R (ohm) = 4.0

Results:

Channel 1:

Potential/V, Current/A
0.888,   1.436e-4
0.889,   1.587e-4
0.890,   1.612e-4
0.891,   1.597e-4
0.892,   1.595e-4
0.893,   1.567e-4
0.894,   1.585e-4
0.895,   1.558e-4
0.896,   1.576e-4
0.897,   1.536e-4
0.898,   1.546e-4
0.899,   1.538e-4
0.900,   1.532e-4
0.901,   1.510e-4
0.902,   1.507e-4
0.903,   1.504e-4
0.904,   1.494e-4
0.905,   1.492e-4
0.906,   1.467e-4
0.907,   1.480e-4
0.908,   1.464e-4
0.909,   1.468e-4
0.910,   1.441e-4
0.911,   1.453e-4
0.912,   1.437e-4
0.913,   1.434e-4
0.914,   1.425e-4
0.915,   1.414e-4
0.916,   1.427e-4
0.917,   1.402e-4
0.918,   1.411e-4
0.919,   1.385e-4
0.920,   1.399e-4
0.921,   1.385e-4
0.922,   1.389e-4
0.923,   1.377e-4
0.924,   1.365e-4
0.925,   1.368e-4
0.926,   1.365e-4
0.927,   1.360e-4
0.928,   1.346e-4
0.929,   1.354e-4
0.930,   1.343e-4
0.931,   1.346e-4
0.932,   1.323e-4
0.933,   1.335e-4
0.934,   1.325e-4
0.935,   1.329e-4
0.936,   1.315e-4
0.937,   1.317e-4
0.938,   1.307e-4
0.939,   1.313e-4
0.940,   1.301e-4
0.941,   1.288e-4
0.942,   1.302e-4
0.943,   1.287e-4
0.944,   1.297e-4
0.945,   1.275e-4
0.946,   1.288e-4
0.947,   1.276e-4
0.948,   1.278e-4
0.949,   1.269e-4
0.950,   1.272e-4
0.951,   1.270e-4
0.952,   1.256e-4
0.953,   1.263e-4
0.954,   1.247e-4
0.955,   1.260e-4
0.956,   1.257e-4
0.957,   1.255e-4
0.958,   1.236e-4
0.959,   1.243e-4
0.960,   1.243e-4
0.961,   1.242e-4
0.962,   1.231e-4
0.963,   1.221e-4
0.964,   1.228e-4
0.965,   1.222e-4
0.966,   1.231e-4
0.967,   1.209e-4
0.968,   1.226e-4
0.969,   1.213e-4
0.970,   1.220e-4
0.971,   1.209e-4
0.972,   1.207e-4
0.973,   1.209e-4
0.974,   1.206e-4
0.975,   1.204e-4
0.976,   1.194e-4
0.977,   1.203e-4
0.978,   1.194e-4
0.979,   1.203e-4
0.980,   1.183e-4
0.981,   1.195e-4
0.982,   1.189e-4
0.983,   1.194e-4
0.984,   1.178e-4
0.985,   1.185e-4
0.986,   1.186e-4
0.987,   1.182e-4
0.988,   1.189e-4
0.989,   1.170e-4
0.990,   1.175e-4
0.991,   1.170e-4
0.992,   1.180e-4
0.993,   1.163e-4
0.994,   1.174e-4
0.995,   1.167e-4
0.996,   1.169e-4
0.997,   1.162e-4
0.998,   1.161e-4
0.999,   1.167e-4
1.000,   1.160e-4
1.001,   1.165e-4
1.002,   1.149e-4
1.003,   1.163e-4
1.004,   1.154e-4
1.005,   1.162e-4
1.006,   1.145e-4
1.007,   1.156e-4
1.008,   1.153e-4
1.009,   1.155e-4
1.010,   1.147e-4
1.011,   1.146e-4
1.012,   1.154e-4
1.013,   1.145e-4
1.014,   1.151e-4
1.015,   1.134e-4
1.016,   1.149e-4
1.017,   1.141e-4
1.018,   1.148e-4
1.019,   1.134e-4
1.020,   1.141e-4
1.021,   1.141e-4
1.022,   1.141e-4
1.023,   1.137e-4
1.024,   1.131e-4
1.025,   1.142e-4
1.026,   1.133e-4
1.027,   1.143e-4
1.028,   1.123e-4
1.029,   1.141e-4
1.030,   1.135e-4
1.031,   1.140e-4
1.032,   1.126e-4
1.033,   1.133e-4
1.034,   1.134e-4
1.035,   1.132e-4
1.036,   1.132e-4
1.037,   1.130e-4
1.038,   1.132e-4
1.039,   1.131e-4
1.040,   1.139e-4
1.041,   1.115e-4
1.042,   1.130e-4
1.043,   1.129e-4
1.044,   1.134e-4
1.045,   1.121e-4
1.046,   1.135e-4
1.047,   1.125e-4
1.048,   1.128e-4
1.049,   1.130e-4
1.050,   1.119e-4
1.051,   1.136e-4
1.052,   1.128e-4
1.053,   1.133e-4
1.054,   1.120e-4
1.055,   1.133e-4
1.056,   1.132e-4
1.057,   1.132e-4
1.058,   1.124e-4
1.059,   1.125e-4
1.060,   1.135e-4
1.061,   1.129e-4
1.062,   1.137e-4
1.063,   1.122e-4
1.064,   1.137e-4
1.065,   1.131e-4
1.066,   1.138e-4
1.067,   1.121e-4
1.068,   1.134e-4
1.069,   1.137e-4
1.070,   1.136e-4
1.071,   1.131e-4
1.072,   1.128e-4
1.073,   1.147e-4
1.074,   1.132e-4
1.075,   1.144e-4
1.076,   1.123e-4
1.077,   1.135e-4
1.078,   1.137e-4
1.079,   1.142e-4
1.080,   1.130e-4
1.081,   1.145e-4
1.082,   1.148e-4
1.083,   1.144e-4
1.084,   1.139e-4
1.085,   1.133e-4
1.086,   1.150e-4
1.087,   1.138e-4
1.088,   1.148e-4
1.089,   1.132e-4
1.090,   1.149e-4
1.091,   1.157e-4
1.092,   1.146e-4
1.093,   1.140e-4
1.094,   1.148e-4
1.095,   1.164e-4
1.096,   1.155e-4
1.097,   1.155e-4
1.098,   1.146e-4
1.099,   1.156e-4
1.100,   1.152e-4
1.101,   1.167e-4
1.102,   1.149e-4
1.103,   1.163e-4
1.104,   1.165e-4
1.105,   1.168e-4
1.106,   1.163e-4
1.107,   1.170e-4
1.108,   1.170e-4
1.109,   1.164e-4
1.110,   1.179e-4
1.111,   1.161e-4
1.112,   1.181e-4
1.113,   1.173e-4
1.114,   1.196e-4
1.115,   1.167e-4
1.116,   1.177e-4
1.117,   1.183e-4
1.118,   1.190e-4
1.119,   1.181e-4
1.120,   1.187e-4
1.121,   1.196e-4
1.122,   1.181e-4
1.123,   1.198e-4
1.124,   1.178e-4
1.125,   1.201e-4
1.126,   1.206e-4
1.127,   1.203e-4
1.128,   1.184e-4
1.129,   1.202e-4
1.130,   1.213e-4
1.131,   1.199e-4
1.132,   1.204e-4
1.133,   1.197e-4
1.134,   1.217e-4
1.135,   1.207e-4
1.136,   1.221e-4
1.137,   1.198e-4
1.138,   1.221e-4
1.139,   1.217e-4
1.140,   1.226e-4
1.141,   1.209e-4
1.142,   1.224e-4
1.143,   1.226e-4
1.144,   1.226e-4
1.145,   1.232e-4
1.146,   1.218e-4
1.147,   1.242e-4
1.148,   1.234e-4
1.149,   1.238e-4
1.150,   1.230e-4
1.151,   1.244e-4
1.152,   1.242e-4
1.153,   1.250e-4
1.154,   1.237e-4
1.155,   1.244e-4
1.156,   1.254e-4
1.157,   1.242e-4
1.158,   1.267e-4
1.159,   1.231e-4
1.160,   1.269e-4
1.161,   1.256e-4
1.162,   1.277e-4
1.163,   1.257e-4
1.164,   1.274e-4
1.165,   1.269e-4
1.166,   1.274e-4
1.167,   1.269e-4
1.168,   1.277e-4
1.169,   1.279e-4
1.170,   1.279e-4
1.171,   1.294e-4
1.172,   1.278e-4
1.173,   1.298e-4
1.174,   1.287e-4
1.175,   1.299e-4
1.176,   1.280e-4
1.177,   1.304e-4
1.178,   1.304e-4
1.179,   1.304e-4
1.180,   1.303e-4
1.181,   1.299e-4
1.182,   1.307e-4
1.183,   1.307e-4
1.184,   1.334e-4
1.185,   1.290e-4
1.186,   1.328e-4
1.187,   1.326e-4
1.188,   1.341e-4
1.189,   1.309e-4
1.190,   1.330e-4
1.191,   1.348e-4
1.192,   1.331e-4
1.193,   1.342e-4
1.194,   1.327e-4
1.195,   1.354e-4
1.196,   1.345e-4
1.197,   1.365e-4
1.198,   1.337e-4
1.199,   1.367e-4
1.200,   1.362e-4
1.201,   1.374e-4
1.202,   1.355e-4
1.203,   1.369e-4
1.204,   1.382e-4
1.205,   1.375e-4
1.206,   1.390e-4
1.207,   1.364e-4
1.208,   1.397e-4
1.209,   1.387e-4
1.210,   1.417e-4
1.211,   1.374e-4
1.212,   1.409e-4
1.213,   1.406e-4
1.214,   1.415e-4
1.215,   1.405e-4
1.216,   1.410e-4
1.217,   1.428e-4
1.218,   1.424e-4
1.219,   1.438e-4
1.220,   1.398e-4
1.221,   1.442e-4
1.222,   1.428e-4
1.223,   1.450e-4
1.224,   1.435e-4
1.225,   1.439e-4
1.226,   1.452e-4
1.227,   1.458e-4
1.228,   1.454e-4
1.229,   1.456e-4
1.230,   1.469e-4
1.231,   1.462e-4
1.232,   1.482e-4
1.233,   1.451e-4
1.234,   1.487e-4
1.235,   1.480e-4
1.236,   1.498e-4
1.237,   1.473e-4
1.238,   1.495e-4
1.239,   1.502e-4
1.240,   1.501e-4
1.241,   1.513e-4
1.242,   1.490e-4
1.243,   1.523e-4
1.244,   1.510e-4
1.245,   1.536e-4
1.246,   1.501e-4
1.247,   1.538e-4
1.248,   1.532e-4
1.249,   1.548e-4
1.250,   1.534e-4
1.251,   1.545e-4
1.252,   1.544e-4
1.253,   1.554e-4
1.254,   1.574e-4
1.255,   1.534e-4
1.256,   1.577e-4
1.257,   1.572e-4
1.258,   1.593e-4
1.259,   1.545e-4
1.260,   1.588e-4
1.261,   1.587e-4
1.262,   1.608e-4
1.263,   1.594e-4
1.264,   1.592e-4
1.265,   1.614e-4
1.266,   1.599e-4
1.267,   1.623e-4
1.268,   1.595e-4
1.269,   1.636e-4
1.270,   1.625e-4
1.271,   1.645e-4
1.272,   1.612e-4
1.273,   1.647e-4
1.274,   1.659e-4
1.275,   1.651e-4
1.276,   1.646e-4
1.277,   1.644e-4
1.278,   1.674e-4
1.279,   1.662e-4
1.280,   1.693e-4
1.281,   1.649e-4
1.282,   1.696e-4
1.283,   1.682e-4
1.284,   1.708e-4
1.285,   1.676e-4
1.286,   1.704e-4
1.287,   1.711e-4
1.288,   1.714e-4
1.289,   1.720e-4
1.290,   1.704e-4
1.291,   1.739e-4
1.292,   1.721e-4
1.293,   1.757e-4
1.294,   1.714e-4
1.295,   1.761e-4
1.296,   1.747e-4
1.297,   1.771e-4
1.298,   1.746e-4
1.299,   1.768e-4
1.300,   1.781e-4
1.301,   1.780e-4
1.302,   1.806e-4
1.303,   1.772e-4
1.304,   1.800e-4
1.305,   1.804e-4
1.306,   1.830e-4
1.307,   1.779e-4
1.308,   1.833e-4
1.309,   1.825e-4
1.310,   1.849e-4
1.311,   1.832e-4
1.312,   1.832e-4
1.313,   1.862e-4
1.314,   1.853e-4
1.315,   1.882e-4
1.316,   1.853e-4
1.317,   1.898e-4
1.318,   1.867e-4
1.319,   1.917e-4
1.320,   1.865e-4
1.321,   1.913e-4
1.322,   1.913e-4
1.323,   1.942e-4
1.324,   1.912e-4
1.325,   1.916e-4
1.326,   1.959e-4
1.327,   1.965e-4
1.328,   1.986e-4
1.329,   1.933e-4
1.330,   1.991e-4
1.331,   1.979e-4
1.332,   2.015e-4
1.333,   1.973e-4
1.334,   2.015e-4
1.335,   2.020e-4
1.336,   2.030e-4
1.337,   2.038e-4
1.338,   2.023e-4
1.339,   2.070e-4
1.340,   2.043e-4
1.341,   2.090e-4
1.342,   2.043e-4
1.343,   2.109e-4
1.344,   2.098e-4
1.345,   2.146e-4
1.346,   2.089e-4
1.347,   2.133e-4
1.348,   2.149e-4
1.349,   2.155e-4
1.350,   2.181e-4
1.351,   2.160e-4
1.352,   2.204e-4
1.353,   2.194e-4
1.354,   2.245e-4
1.355,   2.190e-4
1.356,   2.259e-4
1.357,   2.257e-4
1.358,   2.290e-4
1.359,   2.276e-4
1.360,   2.287e-4
1.361,   2.326e-4
1.362,   2.341e-4
1.363,   2.368e-4
1.364,   2.330e-4
1.365,   2.405e-4
1.366,   2.397e-4
1.367,   2.453e-4
1.368,   2.400e-4
1.369,   2.479e-4
1.370,   2.488e-4
1.371,   2.526e-4
1.372,   2.501e-4
1.373,   2.526e-4
1.374,   2.578e-4
1.375,   2.600e-4
1.376,   2.660e-4
1.377,   2.601e-4
1.378,   2.698e-4
1.379,   2.704e-4
1.380,   2.763e-4
1.381,   2.699e-4
1.382,   2.791e-4
1.383,   2.820e-4
1.384,   2.859e-4
1.385,   2.879e-4
1.386,   2.890e-4
1.387,   2.976e-4
1.388,   2.979e-4
1.389,   3.072e-4
1.390,   3.029e-4
1.391,   3.160e-4
1.392,   3.156e-4
1.393,   3.258e-4
1.394,   3.220e-4
1.395,   3.312e-4
1.396,   3.386e-4
1.397,   3.438e-4
1.398,   3.517e-4
1.399,   3.519e-4
1.400,   3.652e-4
1.401,   3.675e-4
1.402,   3.820e-4
1.403,   3.767e-4
1.404,   3.954e-4
1.405,   4.000e-4
1.406,   4.134e-4
1.407,   4.149e-4
1.408,   4.276e-4
1.409,   4.427e-4
1.410,   4.508e-4
1.411,   4.655e-4
1.412,   4.664e-4
1.413,   4.907e-4
1.414,   4.997e-4
1.415,   5.225e-4
1.416,   5.206e-4
1.417,   5.503e-4
1.418,   5.645e-4
1.419,   5.888e-4
1.420,   6.018e-4
1.421,   6.175e-4
1.422,   6.482e-4
1.423,   6.653e-4
1.424,   7.016e-4
1.425,   7.044e-4
1.426,   7.529e-4
1.427,   7.719e-4
1.428,   8.201e-4
1.429,   8.268e-4
1.430,   8.751e-4
1.431,   9.097e-4
1.432,   9.529e-4
1.433,   9.907e-4
1.434,   1.019e-3
1.435,   1.086e-3
1.436,   1.121e-3
1.437,   1.194e-3
1.438,   1.208e-3
1.439,   1.297e-3
1.440,   1.341e-3
1.441,   1.426e-3
1.442,   1.463e-3
1.443,   1.542e-3
1.444,   1.624e-3
1.445,   1.698e-3
1.446,   1.793e-3
1.447,   1.840e-3
1.448,   1.971e-3
1.449,   2.039e-3
1.450,   2.183e-3
1.451,   2.225e-3
1.452,   2.374e-3
1.453,   2.477e-3
1.454,   2.622e-3
1.455,   2.718e-3
1.456,   2.835e-3
1.457,   3.011e-3
1.458,   3.135e-3
1.459,   3.332e-3
1.460,   3.404e-3
1.461,   3.635e-3
1.462,   3.764e-3
1.463,   4.009e-3
1.464,   4.089e-3
1.465,   4.313e-3
1.466,   4.522e-3
1.467,   4.755e-3
1.468,   4.956e-3
1.469,   5.098e-3
1.470,   5.400e-3
1.471,   5.580e-3
1.472,   5.918e-3
1.473,   5.993e-3
1.474,   6.334e-3
1.475,   6.542e-3
1.476,   6.915e-3
1.477,   7.065e-3
1.478,   7.339e-3
1.479,   7.663e-3
1.480,   7.926e-3
1.481,   8.273e-3
1.482,   8.351e-3
1.483,   8.774e-3
1.484,   8.963e-3
1.485,   9.346e-3
1.486,   9.371e-3
1.487,   9.658e-3
1.488,   9.852e-3
1.489,   9.934e-3
1.490,   9.927e-3
1.491,   9.946e-3
1.492,   1.001e-2
1.493,   1.004e-2
1.494,   1.006e-2
1.495,   1.007e-2
1.496,   1.007e-2
1.497,   1.007e-2
1.498,   1.007e-2
1.499,   1.007e-2
1.500,   1.007e-2
1.501,   1.007e-2
1.502,   1.007e-2
1.503,   1.007e-2
1.504,   1.007e-2
1.505,   1.007e-2