File: Experimental Records, Raw Data, and Supplementary Notes and Figures/batch5/final500/B5_BEST_500_#1_Full(#5)-214mV.txt
June 8, 2023   21:33:34
Linear Sweep Voltammetry
File: d:\current work\al_oer\electrochemical test data\batch 5\500\B5_BEST_500_#1_Full(#5)-214mV.txt
Data Source:  Experiment
Instrument Model:  CHI660E
Header:
Note:

Init E (V) = 0.900

Final E (V) = 1.517

Scan Rate (V/s) = 0.010
Sample Interval (V) = 0.001
Quiet Time (sec) = 2
Sensitivity (A/V) = 0.001
Comp R (ohm) = 4.0

Results:

Channel 1:

Potential/V, Current/A
0.900,   1.292e-4
0.901,   1.918e-4
0.902,   2.057e-4
0.903,   2.092e-4
0.904,   2.015e-4
0.905,   2.152e-4
0.906,   2.052e-4
0.907,   2.127e-4
0.908,   2.122e-4
0.909,   2.096e-4
0.910,   2.166e-4
0.911,   2.051e-4
0.912,   2.185e-4
0.913,   2.067e-4
0.914,   2.151e-4
0.915,   2.157e-4
0.916,   2.081e-4
0.917,   2.200e-4
0.918,   2.065e-4
0.919,   2.206e-4
0.920,   2.102e-4
0.921,   2.129e-4
0.922,   2.205e-4
0.923,   2.077e-4
0.924,   2.196e-4
0.925,   2.085e-4
0.926,   2.194e-4
0.927,   2.162e-4
0.928,   2.127e-4
0.929,   2.257e-4
0.930,   2.097e-4
0.931,   2.244e-4
0.932,   2.121e-4
0.933,   2.186e-4
0.934,   2.201e-4
0.935,   2.126e-4
0.936,   2.189e-4
0.937,   2.118e-4
0.938,   2.274e-4
0.939,   2.132e-4
0.940,   2.159e-4
0.941,   2.251e-4
0.942,   2.113e-4
0.943,   2.282e-4
0.944,   2.133e-4
0.945,   2.215e-4
0.946,   2.255e-4
0.947,   2.114e-4
0.948,   2.283e-4
0.949,   2.137e-4
0.950,   2.266e-4
0.951,   2.196e-4
0.952,   2.224e-4
0.953,   2.268e-4
0.954,   2.127e-4
0.955,   2.310e-4
0.956,   2.161e-4
0.957,   2.261e-4
0.958,   2.239e-4
0.959,   2.184e-4
0.960,   2.328e-4
0.961,   2.152e-4
0.962,   2.322e-4
0.963,   2.202e-4
0.964,   2.240e-4
0.965,   2.299e-4
0.966,   2.186e-4
0.967,   2.381e-4
0.968,   2.154e-4
0.969,   2.322e-4
0.970,   2.288e-4
0.971,   2.213e-4
0.972,   2.333e-4
0.973,   2.201e-4
0.974,   2.351e-4
0.975,   2.236e-4
0.976,   2.314e-4
0.977,   2.288e-4
0.978,   2.237e-4
0.979,   2.409e-4
0.980,   2.217e-4
0.981,   2.305e-4
0.982,   2.296e-4
0.983,   2.266e-4
0.984,   2.376e-4
0.985,   2.229e-4
0.986,   2.428e-4
0.987,   2.264e-4
0.988,   2.334e-4
0.989,   2.340e-4
0.990,   2.235e-4
0.991,   2.431e-4
0.992,   2.238e-4
0.993,   2.427e-4
0.994,   2.318e-4
0.995,   2.306e-4
0.996,   2.410e-4
0.997,   2.267e-4
0.998,   2.408e-4
0.999,   2.289e-4
1.000,   2.400e-4
1.001,   2.339e-4
1.002,   2.311e-4
1.003,   2.459e-4
1.004,   2.261e-4
1.005,   2.439e-4
1.006,   2.331e-4
1.007,   2.360e-4
1.008,   2.461e-4
1.009,   2.292e-4
1.010,   2.460e-4
1.011,   2.340e-4
1.012,   2.420e-4
1.013,   2.366e-4
1.014,   2.326e-4
1.015,   2.503e-4
1.016,   2.295e-4
1.017,   2.484e-4
1.018,   2.363e-4
1.019,   2.393e-4
1.020,   2.459e-4
1.021,   2.344e-4
1.022,   2.543e-4
1.023,   2.303e-4
1.024,   2.480e-4
1.025,   2.442e-4
1.026,   2.354e-4
1.027,   2.515e-4
1.028,   2.340e-4
1.029,   2.560e-4
1.030,   2.365e-4
1.031,   2.421e-4
1.032,   2.479e-4
1.033,   2.376e-4
1.034,   2.549e-4
1.035,   2.351e-4
1.036,   2.509e-4
1.037,   2.437e-4
1.038,   2.422e-4
1.039,   2.582e-4
1.040,   2.335e-4
1.041,   2.552e-4
1.042,   2.410e-4
1.043,   2.485e-4
1.044,   2.510e-4
1.045,   2.415e-4
1.046,   2.580e-4
1.047,   2.390e-4
1.048,   2.545e-4
1.049,   2.467e-4
1.050,   2.443e-4
1.051,   2.570e-4
1.052,   2.402e-4
1.053,   2.607e-4
1.054,   2.457e-4
1.055,   2.519e-4
1.056,   2.526e-4
1.057,   2.432e-4
1.058,   2.682e-4
1.059,   2.417e-4
1.060,   2.575e-4
1.061,   2.511e-4
1.062,   2.479e-4
1.063,   2.628e-4
1.064,   2.429e-4
1.065,   2.647e-4
1.066,   2.468e-4
1.067,   2.530e-4
1.068,   2.599e-4
1.069,   2.487e-4
1.070,   2.661e-4
1.071,   2.460e-4
1.072,   2.615e-4
1.073,   2.548e-4
1.074,   2.524e-4
1.075,   2.672e-4
1.076,   2.480e-4
1.077,   2.677e-4
1.078,   2.492e-4
1.079,   2.605e-4
1.080,   2.603e-4
1.081,   2.540e-4
1.082,   2.713e-4
1.083,   2.475e-4
1.084,   2.676e-4
1.085,   2.559e-4
1.086,   2.588e-4
1.087,   2.684e-4
1.088,   2.516e-4
1.089,   2.713e-4
1.090,   2.509e-4
1.091,   2.652e-4
1.092,   2.651e-4
1.093,   2.559e-4
1.094,   2.757e-4
1.095,   2.531e-4
1.096,   2.725e-4
1.097,   2.589e-4
1.098,   2.667e-4
1.099,   2.705e-4
1.100,   2.612e-4
1.101,   2.745e-4
1.102,   2.551e-4
1.103,   2.735e-4
1.104,   2.665e-4
1.105,   2.634e-4
1.106,   2.783e-4
1.107,   2.584e-4
1.108,   2.780e-4
1.109,   2.631e-4
1.110,   2.719e-4
1.111,   2.790e-4
1.112,   2.593e-4
1.113,   2.817e-4
1.114,   2.621e-4
1.115,   2.779e-4
1.116,   2.716e-4
1.117,   2.703e-4
1.118,   2.828e-4
1.119,   2.627e-4
1.120,   2.856e-4
1.121,   2.663e-4
1.122,   2.821e-4
1.123,   2.812e-4
1.124,   2.683e-4
1.125,   2.860e-4
1.126,   2.680e-4
1.127,   2.895e-4
1.128,   2.712e-4
1.129,   2.753e-4
1.130,   2.886e-4
1.131,   2.685e-4
1.132,   2.923e-4
1.133,   2.711e-4
1.134,   2.871e-4
1.135,   2.832e-4
1.136,   2.768e-4
1.137,   2.956e-4
1.138,   2.739e-4
1.139,   2.958e-4
1.140,   2.755e-4
1.141,   2.891e-4
1.142,   2.901e-4
1.143,   2.754e-4
1.144,   2.953e-4
1.145,   2.792e-4
1.146,   2.963e-4
1.147,   2.874e-4
1.148,   2.864e-4
1.149,   2.964e-4
1.150,   2.821e-4
1.151,   3.010e-4
1.152,   2.847e-4
1.153,   2.956e-4
1.154,   2.988e-4
1.155,   2.888e-4
1.156,   2.975e-4
1.157,   2.847e-4
1.158,   3.054e-4
1.159,   2.940e-4
1.160,   2.945e-4
1.161,   2.998e-4
1.162,   2.951e-4
1.163,   3.034e-4
1.164,   2.965e-4
1.165,   3.044e-4
1.166,   2.995e-4
1.167,   3.001e-4
1.168,   3.056e-4
1.169,   2.951e-4
1.170,   3.114e-4
1.171,   2.984e-4
1.172,   3.034e-4
1.173,   3.040e-4
1.174,   3.045e-4
1.175,   3.126e-4
1.176,   2.974e-4
1.177,   3.163e-4
1.178,   3.076e-4
1.179,   3.063e-4
1.180,   3.163e-4
1.181,   3.065e-4
1.182,   3.216e-4
1.183,   3.052e-4
1.184,   3.104e-4
1.185,   3.156e-4
1.186,   3.073e-4
1.187,   3.257e-4
1.188,   3.102e-4
1.189,   3.173e-4
1.190,   3.177e-4
1.191,   3.160e-4
1.192,   3.270e-4
1.193,   3.045e-4
1.194,   3.359e-4
1.195,   3.117e-4
1.196,   3.229e-4
1.197,   3.310e-4
1.198,   3.157e-4
1.199,   3.409e-4
1.200,   3.069e-4
1.201,   3.318e-4
1.202,   3.245e-4
1.203,   3.262e-4
1.204,   3.444e-4
1.205,   3.072e-4
1.206,   3.486e-4
1.207,   3.176e-4
1.208,   3.393e-4
1.209,   3.359e-4
1.210,   3.263e-4
1.211,   3.478e-4
1.212,   3.168e-4
1.213,   3.460e-4
1.214,   3.335e-4
1.215,   3.344e-4
1.216,   3.513e-4
1.217,   3.238e-4
1.218,   3.603e-4
1.219,   3.257e-4
1.220,   3.488e-4
1.221,   3.452e-4
1.222,   3.349e-4
1.223,   3.656e-4
1.224,   3.255e-4
1.225,   3.622e-4
1.226,   3.412e-4
1.227,   3.489e-4
1.228,   3.645e-4
1.229,   3.419e-4
1.230,   3.640e-4
1.231,   3.372e-4
1.232,   3.657e-4
1.233,   3.486e-4
1.234,   3.608e-4
1.235,   3.609e-4
1.236,   3.419e-4
1.237,   3.722e-4
1.238,   3.457e-4
1.239,   3.682e-4
1.240,   3.691e-4
1.241,   3.455e-4
1.242,   3.815e-4
1.243,   3.465e-4
1.244,   3.813e-4
1.245,   3.646e-4
1.246,   3.665e-4
1.247,   3.755e-4
1.248,   3.511e-4
1.249,   3.896e-4
1.250,   3.572e-4
1.251,   3.837e-4
1.252,   3.827e-4
1.253,   3.594e-4
1.254,   3.970e-4
1.255,   3.574e-4
1.256,   3.902e-4
1.257,   3.731e-4
1.258,   3.786e-4
1.259,   3.938e-4
1.260,   3.627e-4
1.261,   4.046e-4
1.262,   3.643e-4
1.263,   3.968e-4
1.264,   3.859e-4
1.265,   3.737e-4
1.266,   4.043e-4
1.267,   3.655e-4
1.268,   4.080e-4
1.269,   3.842e-4
1.270,   3.851e-4
1.271,   4.181e-4
1.272,   3.618e-4
1.273,   4.170e-4
1.274,   3.812e-4
1.275,   4.005e-4
1.276,   4.067e-4
1.277,   3.780e-4
1.278,   4.278e-4
1.279,   3.760e-4
1.280,   4.152e-4
1.281,   4.008e-4
1.282,   4.002e-4
1.283,   4.319e-4
1.284,   3.755e-4
1.285,   4.332e-4
1.286,   3.844e-4
1.287,   4.181e-4
1.288,   4.144e-4
1.289,   3.872e-4
1.290,   4.529e-4
1.291,   3.724e-4
1.292,   4.320e-4
1.293,   4.141e-4
1.294,   4.056e-4
1.295,   4.506e-4
1.296,   3.729e-4
1.297,   4.484e-4
1.298,   3.952e-4
1.299,   4.364e-4
1.300,   4.293e-4
1.301,   3.958e-4
1.302,   4.590e-4
1.303,   3.864e-4
1.304,   4.575e-4
1.305,   4.114e-4
1.306,   4.202e-4
1.307,   4.651e-4
1.308,   3.862e-4
1.309,   4.636e-4
1.310,   3.998e-4
1.311,   4.517e-4
1.312,   4.400e-4
1.313,   4.030e-4
1.314,   4.757e-4
1.315,   3.939e-4
1.316,   4.781e-4
1.317,   4.173e-4
1.318,   4.334e-4
1.319,   4.734e-4
1.320,   3.970e-4
1.321,   4.819e-4
1.322,   4.149e-4
1.323,   4.717e-4
1.324,   4.402e-4
1.325,   4.319e-4
1.326,   4.755e-4
1.327,   4.130e-4
1.328,   4.942e-4
1.329,   4.166e-4
1.330,   4.663e-4
1.331,   4.658e-4
1.332,   4.245e-4
1.333,   5.057e-4
1.334,   4.075e-4
1.335,   4.923e-4
1.336,   4.512e-4
1.337,   4.429e-4
1.338,   4.960e-4
1.339,   4.197e-4
1.340,   5.106e-4
1.341,   4.389e-4
1.342,   4.648e-4
1.343,   4.908e-4
1.344,   4.326e-4
1.345,   5.229e-4
1.346,   4.267e-4
1.347,   5.030e-4
1.348,   4.648e-4
1.349,   4.580e-4
1.350,   5.129e-4
1.351,   4.378e-4
1.352,   5.322e-4
1.353,   4.471e-4
1.354,   4.954e-4
1.355,   4.962e-4
1.356,   4.602e-4
1.357,   5.359e-4
1.358,   4.441e-4
1.359,   5.366e-4
1.360,   4.818e-4
1.361,   4.760e-4
1.362,   5.352e-4
1.363,   4.583e-4
1.364,   5.575e-4
1.365,   4.573e-4
1.366,   5.267e-4
1.367,   5.132e-4
1.368,   4.870e-4
1.369,   5.591e-4
1.370,   4.644e-4
1.371,   5.630e-4
1.372,   4.996e-4
1.373,   5.091e-4
1.374,   5.583e-4
1.375,   4.800e-4
1.376,   5.915e-4
1.377,   4.835e-4
1.378,   5.571e-4
1.379,   5.411e-4
1.380,   5.113e-4
1.381,   6.021e-4
1.382,   4.850e-4
1.383,   6.083e-4
1.384,   5.212e-4
1.385,   5.508e-4
1.386,   6.019e-4
1.387,   5.097e-4
1.388,   6.353e-4
1.389,   5.135e-4
1.390,   5.931e-4
1.391,   5.836e-4
1.392,   5.449e-4
1.393,   6.627e-4
1.394,   5.152e-4
1.395,   6.548e-4
1.396,   5.738e-4
1.397,   5.969e-4
1.398,   6.589e-4
1.399,   5.470e-4
1.400,   7.058e-4
1.401,   5.634e-4
1.402,   6.578e-4
1.403,   6.537e-4
1.404,   6.105e-4
1.405,   7.305e-4
1.406,   5.897e-4
1.407,   7.358e-4
1.408,   6.435e-4
1.409,   6.817e-4
1.410,   7.607e-4
1.411,   6.220e-4
1.412,   8.212e-4
1.413,   6.540e-4
1.414,   7.781e-4
1.415,   7.671e-4
1.416,   7.148e-4
1.417,   8.861e-4
1.418,   6.803e-4
1.419,   9.047e-4
1.420,   7.751e-4
1.421,   8.417e-4
1.422,   9.325e-4
1.423,   7.767e-4
1.424,   1.045e-3
1.425,   8.121e-4
1.426,   1.002e-3
1.427,   9.850e-4
1.428,   9.472e-4
1.429,   1.164e-3
1.430,   9.214e-4
1.431,   1.224e-3
1.432,   1.057e-3
1.433,   1.178e-3
1.434,   1.302e-3
1.435,   1.109e-3
1.436,   1.491e-3
1.437,   1.192e-3
1.438,   1.470e-3
1.439,   1.459e-3
1.440,   1.433e-3
1.441,   1.730e-3
1.442,   1.465e-3
1.443,   1.825e-3
1.444,   1.717e-3
1.445,   1.889e-3
1.446,   2.040e-3
1.447,   1.872e-3
1.448,   2.313e-3
1.449,   2.085e-3
1.450,   2.432e-3
1.451,   2.466e-3
1.452,   2.498e-3
1.453,   2.918e-3
1.454,   2.627e-3
1.455,   3.187e-3
1.456,   3.032e-3
1.457,   3.377e-3
1.458,   3.646e-3
1.459,   3.473e-3
1.460,   4.253e-3
1.461,   3.784e-3
1.462,   4.594e-3
1.463,   4.457e-3
1.464,   4.776e-3
1.465,   5.369e-3
1.466,   4.987e-3
1.467,   6.024e-3
1.468,   5.570e-3
1.469,   6.155e-3
1.470,   6.533e-3
1.471,   6.482e-3
1.472,   7.337e-3
1.473,   7.176e-3
1.474,   7.910e-3
1.475,   8.006e-3
1.476,   8.391e-3
1.477,   9.003e-3
1.478,   9.021e-3
1.479,   9.761e-3
1.480,   9.905e-3
1.481,   1.007e-2
1.482,   1.007e-2
1.483,   1.007e-2
1.484,   1.007e-2
1.485,   1.007e-2
1.486,   1.007e-2
1.487,   1.007e-2
1.488,   1.007e-2
1.489,   1.007e-2
1.490,   1.007e-2
1.491,   1.007e-2
1.492,   1.007e-2
1.493,   1.007e-2
1.494,   1.007e-2
1.495,   1.007e-2
1.496,   1.007e-2
1.497,   1.007e-2
1.498,   1.007e-2
1.499,   1.007e-2
1.500,   1.007e-2
1.501,   1.007e-2
1.502,   1.007e-2
1.503,   1.007e-2
1.504,   1.007e-2
1.505,   1.007e-2
1.506,   1.007e-2
1.507,   1.007e-2
1.508,   1.007e-2
1.509,   1.007e-2
1.510,   1.007e-2
1.511,   1.007e-2
1.512,   1.007e-2
1.513,   1.007e-2
1.514,   1.007e-2
1.515,   1.007e-2
1.516,   1.007e-2
1.517,   1.007e-2