File: Experimental Records, Raw Data, and Supplementary Notes and Figures/batch5/final500/B5_BEST_500_#1_High_Quality(#22)-215mV.txt
June 9, 2023   15:02:44
Linear Sweep Voltammetry
File: d:\current work\al_oer\electrochemical test data\batch 5\500\B5_BEST_500_#1_High_Quality(#22)-215mV.txt
Data Source:  Experiment
Instrument Model:  CHI660E
Header:
Note:

Init E (V) = 0.888

Final E (V) = 1.495

Scan Rate (V/s) = 0.010
Sample Interval (V) = 0.001
Quiet Time (sec) = 2
Sensitivity (A/V) = 0.001
Comp R (ohm) = 4.8

Results:

Channel 1:

Potential/V, Current/A
0.888,   2.342e-4
0.889,   2.617e-4
0.890,   2.685e-4
0.891,   2.609e-4
0.892,   2.677e-4
0.893,   2.691e-4
0.894,   2.567e-4
0.895,   2.683e-4
0.896,   2.659e-4
0.897,   2.544e-4
0.898,   2.651e-4
0.899,   2.609e-4
0.900,   2.525e-4
0.901,   2.616e-4
0.902,   2.556e-4
0.903,   2.519e-4
0.904,   2.569e-4
0.905,   2.518e-4
0.906,   2.501e-4
0.907,   2.497e-4
0.908,   2.482e-4
0.909,   2.505e-4
0.910,   2.425e-4
0.911,   2.456e-4
0.912,   2.477e-4
0.913,   2.381e-4
0.914,   2.434e-4
0.915,   2.445e-4
0.916,   2.337e-4
0.917,   2.414e-4
0.918,   2.403e-4
0.919,   2.293e-4
0.920,   2.402e-4
0.921,   2.360e-4
0.922,   2.294e-4
0.923,   2.371e-4
0.924,   2.313e-4
0.925,   2.271e-4
0.926,   2.319e-4
0.927,   2.286e-4
0.928,   2.283e-4
0.929,   2.270e-4
0.930,   2.256e-4
0.931,   2.279e-4
0.932,   2.226e-4
0.933,   2.241e-4
0.934,   2.268e-4
0.935,   2.195e-4
0.936,   2.242e-4
0.937,   2.236e-4
0.938,   2.170e-4
0.939,   2.221e-4
0.940,   2.213e-4
0.941,   2.134e-4
0.942,   2.204e-4
0.943,   2.178e-4
0.944,   2.128e-4
0.945,   2.183e-4
0.946,   2.150e-4
0.947,   2.126e-4
0.948,   2.156e-4
0.949,   2.126e-4
0.950,   2.130e-4
0.951,   2.122e-4
0.952,   2.109e-4
0.953,   2.131e-4
0.954,   2.094e-4
0.955,   2.104e-4
0.956,   2.117e-4
0.957,   2.045e-4
0.958,   2.088e-4
0.959,   2.102e-4
0.960,   2.036e-4
0.961,   2.086e-4
0.962,   2.080e-4
0.963,   2.018e-4
0.964,   2.076e-4
0.965,   2.060e-4
0.966,   2.015e-4
0.967,   2.063e-4
0.968,   2.035e-4
0.969,   2.016e-4
0.970,   2.032e-4
0.971,   2.022e-4
0.972,   2.001e-4
0.973,   2.020e-4
0.974,   2.003e-4
0.975,   2.014e-4
0.976,   1.989e-4
0.977,   2.002e-4
0.978,   2.030e-4
0.979,   1.952e-4
0.980,   2.003e-4
0.981,   2.016e-4
0.982,   1.944e-4
0.983,   2.013e-4
0.984,   2.005e-4
0.985,   1.917e-4
0.986,   2.003e-4
0.987,   1.988e-4
0.988,   1.924e-4
0.989,   1.993e-4
0.990,   1.969e-4
0.991,   1.931e-4
0.992,   1.981e-4
0.993,   1.952e-4
0.994,   1.958e-4
0.995,   1.960e-4
0.996,   1.944e-4
0.997,   1.960e-4
0.998,   1.939e-4
0.999,   1.947e-4
1.000,   1.967e-4
1.001,   1.912e-4
1.002,   1.948e-4
1.003,   1.969e-4
1.004,   1.888e-4
1.005,   1.954e-4
1.006,   1.959e-4
1.007,   1.866e-4
1.008,   1.960e-4
1.009,   1.948e-4
1.010,   1.867e-4
1.011,   1.965e-4
1.012,   1.939e-4
1.013,   1.896e-4
1.014,   1.953e-4
1.015,   1.910e-4
1.016,   1.907e-4
1.017,   1.927e-4
1.018,   1.906e-4
1.019,   1.925e-4
1.020,   1.900e-4
1.021,   1.904e-4
1.022,   1.936e-4
1.023,   1.876e-4
1.024,   1.919e-4
1.025,   1.941e-4
1.026,   1.857e-4
1.027,   1.932e-4
1.028,   1.936e-4
1.029,   1.856e-4
1.030,   1.939e-4
1.031,   1.927e-4
1.032,   1.837e-4
1.033,   1.933e-4
1.034,   1.911e-4
1.035,   1.863e-4
1.036,   1.925e-4
1.037,   1.896e-4
1.038,   1.886e-4
1.039,   1.905e-4
1.040,   1.888e-4
1.041,   1.904e-4
1.042,   1.879e-4
1.043,   1.892e-4
1.044,   1.916e-4
1.045,   1.858e-4
1.046,   1.899e-4
1.047,   1.927e-4
1.048,   1.839e-4
1.049,   1.915e-4
1.050,   1.930e-4
1.051,   1.831e-4
1.052,   1.922e-4
1.053,   1.922e-4
1.054,   1.834e-4
1.055,   1.932e-4
1.056,   1.920e-4
1.057,   1.855e-4
1.058,   1.922e-4
1.059,   1.900e-4
1.060,   1.882e-4
1.061,   1.899e-4
1.062,   1.901e-4
1.063,   1.905e-4
1.064,   1.887e-4
1.065,   1.907e-4
1.066,   1.934e-4
1.067,   1.877e-4
1.068,   1.893e-4
1.069,   1.941e-4
1.070,   1.860e-4
1.071,   1.921e-4
1.072,   1.944e-4
1.073,   1.851e-4
1.074,   1.931e-4
1.075,   1.937e-4
1.076,   1.868e-4
1.077,   1.929e-4
1.078,   1.923e-4
1.079,   1.881e-4
1.080,   1.931e-4
1.081,   1.912e-4
1.082,   1.904e-4
1.083,   1.921e-4
1.084,   1.903e-4
1.085,   1.930e-4
1.086,   1.911e-4
1.087,   1.910e-4
1.088,   1.958e-4
1.089,   1.892e-4
1.090,   1.942e-4
1.091,   1.966e-4
1.092,   1.878e-4
1.093,   1.940e-4
1.094,   1.970e-4
1.095,   1.883e-4
1.096,   1.952e-4
1.097,   1.969e-4
1.098,   1.878e-4
1.099,   1.973e-4
1.100,   1.956e-4
1.101,   1.903e-4
1.102,   1.972e-4
1.103,   1.959e-4
1.104,   1.941e-4
1.105,   1.954e-4
1.106,   1.942e-4
1.107,   1.972e-4
1.108,   1.949e-4
1.109,   1.943e-4
1.110,   2.000e-4
1.111,   1.929e-4
1.112,   1.969e-4
1.113,   2.030e-4
1.114,   1.904e-4
1.115,   1.993e-4
1.116,   2.023e-4
1.117,   1.906e-4
1.118,   2.007e-4
1.119,   2.016e-4
1.120,   1.926e-4
1.121,   2.023e-4
1.122,   2.006e-4
1.123,   1.956e-4
1.124,   2.019e-4
1.125,   2.001e-4
1.126,   1.990e-4
1.127,   2.038e-4
1.128,   1.999e-4
1.129,   2.024e-4
1.130,   2.006e-4
1.131,   2.012e-4
1.132,   2.059e-4
1.133,   1.989e-4
1.134,   2.028e-4
1.135,   2.087e-4
1.136,   1.975e-4
1.137,   2.053e-4
1.138,   2.097e-4
1.139,   1.967e-4
1.140,   2.076e-4
1.141,   2.096e-4
1.142,   1.981e-4
1.143,   2.091e-4
1.144,   2.084e-4
1.145,   2.003e-4
1.146,   2.097e-4
1.147,   2.067e-4
1.148,   2.035e-4
1.149,   2.094e-4
1.150,   2.070e-4
1.151,   2.093e-4
1.152,   2.078e-4
1.153,   2.087e-4
1.154,   2.146e-4
1.155,   2.055e-4
1.156,   2.104e-4
1.157,   2.175e-4
1.158,   2.048e-4
1.159,   2.125e-4
1.160,   2.190e-4
1.161,   2.043e-4
1.162,   2.159e-4
1.163,   2.185e-4
1.164,   2.024e-4
1.165,   2.186e-4
1.166,   2.171e-4
1.167,   2.079e-4
1.168,   2.190e-4
1.169,   2.163e-4
1.170,   2.129e-4
1.171,   2.187e-4
1.172,   2.156e-4
1.173,   2.186e-4
1.174,   2.169e-4
1.175,   2.165e-4
1.176,   2.248e-4
1.177,   2.136e-4
1.178,   2.191e-4
1.179,   2.296e-4
1.180,   2.116e-4
1.181,   2.218e-4
1.182,   2.321e-4
1.183,   2.096e-4
1.184,   2.263e-4
1.185,   2.302e-4
1.186,   2.128e-4
1.187,   2.293e-4
1.188,   2.288e-4
1.189,   2.172e-4
1.190,   2.309e-4
1.191,   2.283e-4
1.192,   2.246e-4
1.193,   2.288e-4
1.194,   2.260e-4
1.195,   2.312e-4
1.196,   2.280e-4
1.197,   2.288e-4
1.198,   2.364e-4
1.199,   2.243e-4
1.200,   2.308e-4
1.201,   2.429e-4
1.202,   2.219e-4
1.203,   2.363e-4
1.204,   2.437e-4
1.205,   2.221e-4
1.206,   2.392e-4
1.207,   2.468e-4
1.208,   2.242e-4
1.209,   2.429e-4
1.210,   2.428e-4
1.211,   2.295e-4
1.212,   2.439e-4
1.213,   2.416e-4
1.214,   2.383e-4
1.215,   2.436e-4
1.216,   2.402e-4
1.217,   2.491e-4
1.218,   2.407e-4
1.219,   2.413e-4
1.220,   2.564e-4
1.221,   2.362e-4
1.222,   2.454e-4
1.223,   2.636e-4
1.224,   2.337e-4
1.225,   2.498e-4
1.226,   2.630e-4
1.227,   2.330e-4
1.228,   2.565e-4
1.229,   2.627e-4
1.230,   2.372e-4
1.231,   2.604e-4
1.232,   2.590e-4
1.233,   2.441e-4
1.234,   2.624e-4
1.235,   2.552e-4
1.236,   2.560e-4
1.237,   2.604e-4
1.238,   2.535e-4
1.239,   2.670e-4
1.240,   2.571e-4
1.241,   2.548e-4
1.242,   2.767e-4
1.243,   2.519e-4
1.244,   2.627e-4
1.245,   2.832e-4
1.246,   2.450e-4
1.247,   2.703e-4
1.248,   2.866e-4
1.249,   2.433e-4
1.250,   2.797e-4
1.251,   2.797e-4
1.252,   2.516e-4
1.253,   2.845e-4
1.254,   2.728e-4
1.255,   2.659e-4
1.256,   2.770e-4
1.257,   2.673e-4
1.258,   2.811e-4
1.259,   2.742e-4
1.260,   2.669e-4
1.261,   2.896e-4
1.262,   2.720e-4
1.263,   2.663e-4
1.264,   3.030e-4
1.265,   2.643e-4
1.266,   2.778e-4
1.267,   3.004e-4
1.268,   2.609e-4
1.269,   2.875e-4
1.270,   2.972e-4
1.271,   2.627e-4
1.272,   2.963e-4
1.273,   2.907e-4
1.274,   2.708e-4
1.275,   2.985e-4
1.276,   2.843e-4
1.277,   2.847e-4
1.278,   2.981e-4
1.279,   2.781e-4
1.280,   2.981e-4
1.281,   2.940e-4
1.282,   2.775e-4
1.283,   3.107e-4
1.284,   2.845e-4
1.285,   2.837e-4
1.286,   3.223e-4
1.287,   2.721e-4
1.288,   2.992e-4
1.289,   3.210e-4
1.290,   2.688e-4
1.291,   3.030e-4
1.292,   3.044e-4
1.293,   2.820e-4
1.294,   3.126e-4
1.295,   2.988e-4
1.296,   2.918e-4
1.297,   3.121e-4
1.298,   2.881e-4
1.299,   3.122e-4
1.300,   3.086e-4
1.301,   2.811e-4
1.302,   3.192e-4
1.303,   3.059e-4
1.304,   2.852e-4
1.305,   3.291e-4
1.306,   2.898e-4
1.307,   3.002e-4
1.308,   3.309e-4
1.309,   2.843e-4
1.310,   3.103e-4
1.311,   3.185e-4
1.312,   2.919e-4
1.313,   3.207e-4
1.314,   3.106e-4
1.315,   2.970e-4
1.316,   3.250e-4
1.317,   2.995e-4
1.318,   3.134e-4
1.319,   3.283e-4
1.320,   2.949e-4
1.321,   3.231e-4
1.322,   3.448e-4
1.323,   2.762e-4
1.324,   3.448e-4
1.325,   3.215e-4
1.326,   2.874e-4
1.327,   3.485e-4
1.328,   3.033e-4
1.329,   3.217e-4
1.330,   3.447e-4
1.331,   2.777e-4
1.332,   3.530e-4
1.333,   3.200e-4
1.334,   2.841e-4
1.335,   3.740e-4
1.336,   3.022e-4
1.337,   2.952e-4
1.338,   3.900e-4
1.339,   2.750e-4
1.340,   3.226e-4
1.341,   3.888e-4
1.342,   2.567e-4
1.343,   3.473e-4
1.344,   3.628e-4
1.345,   2.778e-4
1.346,   3.606e-4
1.347,   3.356e-4
1.348,   3.079e-4
1.349,   3.655e-4
1.350,   3.049e-4
1.351,   3.486e-4
1.352,   3.397e-4
1.353,   3.088e-4
1.354,   3.749e-4
1.355,   3.242e-4
1.356,   3.132e-4
1.357,   4.025e-4
1.358,   2.977e-4
1.359,   3.371e-4
1.360,   4.019e-4
1.361,   2.864e-4
1.362,   3.599e-4
1.363,   4.064e-4
1.364,   2.763e-4
1.365,   3.852e-4
1.366,   3.852e-4
1.367,   3.004e-4
1.368,   3.898e-4
1.369,   3.635e-4
1.370,   3.398e-4
1.371,   3.873e-4
1.372,   3.479e-4
1.373,   3.800e-4
1.374,   3.705e-4
1.375,   3.564e-4
1.376,   4.142e-4
1.377,   3.495e-4
1.378,   3.649e-4
1.379,   4.302e-4
1.380,   3.406e-4
1.381,   3.859e-4
1.382,   4.506e-4
1.383,   3.247e-4
1.384,   4.193e-4
1.385,   4.236e-4
1.386,   3.682e-4
1.387,   4.216e-4
1.388,   4.341e-4
1.389,   3.723e-4
1.390,   4.408e-4
1.391,   4.288e-4
1.392,   4.088e-4
1.393,   4.380e-4
1.394,   4.348e-4
1.395,   4.448e-4
1.396,   4.491e-4
1.397,   4.338e-4
1.398,   4.889e-4
1.399,   4.335e-4
1.400,   4.563e-4
1.401,   5.218e-4
1.402,   4.399e-4
1.403,   4.827e-4
1.404,   5.465e-4
1.405,   4.478e-4
1.406,   5.214e-4
1.407,   5.630e-4
1.408,   4.791e-4
1.409,   5.587e-4
1.410,   5.735e-4
1.411,   5.256e-4
1.412,   5.961e-4
1.413,   5.982e-4
1.414,   5.818e-4
1.415,   6.257e-4
1.416,   6.308e-4
1.417,   6.578e-4
1.418,   6.508e-4
1.419,   6.759e-4
1.420,   7.403e-4
1.421,   6.821e-4
1.422,   7.420e-4
1.423,   8.295e-4
1.424,   7.289e-4
1.425,   8.296e-4
1.426,   9.349e-4
1.427,   7.933e-4
1.428,   9.218e-4
1.429,   1.034e-3
1.430,   8.953e-4
1.431,   1.041e-3
1.432,   1.125e-3
1.433,   1.046e-3
1.434,   1.172e-3
1.435,   1.230e-3
1.436,   1.236e-3
1.437,   1.324e-3
1.438,   1.375e-3
1.439,   1.462e-3
1.440,   1.499e-3
1.441,   1.554e-3
1.442,   1.716e-3
1.443,   1.698e-3
1.444,   1.797e-3
1.445,   2.016e-3
1.446,   1.927e-3
1.447,   2.084e-3
1.448,   2.350e-3
1.449,   2.237e-3
1.450,   2.449e-3
1.451,   2.706e-3
1.452,   2.621e-3
1.453,   2.870e-3
1.454,   3.111e-3
1.455,   3.103e-3
1.456,   3.362e-3
1.457,   3.556e-3
1.458,   3.694e-3
1.459,   3.916e-3
1.460,   4.108e-3
1.461,   4.412e-3
1.462,   4.572e-3
1.463,   4.729e-3
1.464,   5.180e-3
1.465,   5.319e-3
1.466,   5.429e-3
1.467,   5.956e-3
1.468,   6.062e-3
1.469,   6.156e-3
1.470,   6.781e-3
1.471,   6.939e-3
1.472,   7.101e-3
1.473,   7.660e-3
1.474,   7.852e-3
1.475,   8.093e-3
1.476,   8.544e-3
1.477,   8.750e-3
1.478,   9.000e-3
1.479,   9.308e-3
1.480,   9.514e-3
1.481,   9.783e-3
1.482,   9.929e-3
1.483,   1.003e-2
1.484,   1.007e-2
1.485,   1.007e-2
1.486,   1.007e-2
1.487,   1.007e-2
1.488,   1.007e-2
1.489,   1.007e-2
1.490,   1.007e-2
1.491,   1.007e-2
1.492,   1.007e-2
1.493,   1.007e-2
1.494,   1.007e-2
1.495,   1.007e-2