File: Experimental Records, Raw Data, and Supplementary Notes and Figures/batch5/final500/B5_BEST_500_#1_Full(#4)-193mV.txt
June 9, 2023   11:52:00
Linear Sweep Voltammetry
File: d:\current work\al_oer\electrochemical test data\batch 5\500\B5_BEST_500_#1_Full(#4)-193mV.txt
Data Source:  Experiment
Instrument Model:  CHI660E
Header:
Note:

Init E (V) = 0.897

Final E (V) = 1.502

Scan Rate (V/s) = 0.010
Sample Interval (V) = 0.001
Quiet Time (sec) = 2
Sensitivity (A/V) = 0.001
Comp R (ohm) = 4.0

Results:

Channel 1:

Potential/V, Current/A
0.897,   5.540e-4
0.898,   7.527e-4
0.899,   7.359e-4
0.900,   7.506e-4
0.901,   7.842e-4
0.902,   7.500e-4
0.903,   7.386e-4
0.904,   7.638e-4
0.905,   7.649e-4
0.906,   7.142e-4
0.907,   7.315e-4
0.908,   7.692e-4
0.909,   6.982e-4
0.910,   7.081e-4
0.911,   7.510e-4
0.912,   6.951e-4
0.913,   6.936e-4
0.914,   7.250e-4
0.915,   6.958e-4
0.916,   6.704e-4
0.917,   7.026e-4
0.918,   7.107e-4
0.919,   6.525e-4
0.920,   6.701e-4
0.921,   7.124e-4
0.922,   6.481e-4
0.923,   6.550e-4
0.924,   6.971e-4
0.925,   6.478e-4
0.926,   6.389e-4
0.927,   6.832e-4
0.928,   6.573e-4
0.929,   6.261e-4
0.930,   6.501e-4
0.931,   6.651e-4
0.932,   6.186e-4
0.933,   6.216e-4
0.934,   6.597e-4
0.935,   6.143e-4
0.936,   6.219e-4
0.937,   6.563e-4
0.938,   6.280e-4
0.939,   6.061e-4
0.940,   6.342e-4
0.941,   6.372e-4
0.942,   5.970e-4
0.943,   6.117e-4
0.944,   6.395e-4
0.945,   5.893e-4
0.946,   5.984e-4
0.947,   6.376e-4
0.948,   5.958e-4
0.949,   5.920e-4
0.950,   6.109e-4
0.951,   5.865e-4
0.952,   5.882e-4
0.953,   6.052e-4
0.954,   6.070e-4
0.955,   5.835e-4
0.956,   5.946e-4
0.957,   6.096e-4
0.958,   5.783e-4
0.959,   5.889e-4
0.960,   6.003e-4
0.961,   5.787e-4
0.962,   5.770e-4
0.963,   5.916e-4
0.964,   5.845e-4
0.965,   5.760e-4
0.966,   5.799e-4
0.967,   5.858e-4
0.968,   5.719e-4
0.969,   5.724e-4
0.970,   5.877e-4
0.971,   5.700e-4
0.972,   5.666e-4
0.973,   5.861e-4
0.974,   5.708e-4
0.975,   5.588e-4
0.976,   5.731e-4
0.977,   5.816e-4
0.978,   5.507e-4
0.979,   5.682e-4
0.980,   5.910e-4
0.981,   5.520e-4
0.982,   5.572e-4
0.983,   5.945e-4
0.984,   5.527e-4
0.985,   5.466e-4
0.986,   5.755e-4
0.987,   5.658e-4
0.988,   5.390e-4
0.989,   5.573e-4
0.990,   5.782e-4
0.991,   5.341e-4
0.992,   5.449e-4
0.993,   5.814e-4
0.994,   5.381e-4
0.995,   5.378e-4
0.996,   5.764e-4
0.997,   5.444e-4
0.998,   5.359e-4
0.999,   5.575e-4
1.000,   5.596e-4
1.001,   5.293e-4
1.002,   5.434e-4
1.003,   5.725e-4
1.004,   5.349e-4
1.005,   5.397e-4
1.006,   5.693e-4
1.007,   5.319e-4
1.008,   5.302e-4
1.009,   5.592e-4
1.010,   5.385e-4
1.011,   5.285e-4
1.012,   5.404e-4
1.013,   5.579e-4
1.014,   5.285e-4
1.015,   5.358e-4
1.016,   5.527e-4
1.017,   5.229e-4
1.018,   5.351e-4
1.019,   5.573e-4
1.020,   5.324e-4
1.021,   5.219e-4
1.022,   5.452e-4
1.023,   5.440e-4
1.024,   5.239e-4
1.025,   5.352e-4
1.026,   5.556e-4
1.027,   5.204e-4
1.028,   5.309e-4
1.029,   5.589e-4
1.030,   5.224e-4
1.031,   5.237e-4
1.032,   5.550e-4
1.033,   5.346e-4
1.034,   5.241e-4
1.035,   5.375e-4
1.036,   5.457e-4
1.037,   5.185e-4
1.038,   5.284e-4
1.039,   5.564e-4
1.040,   5.189e-4
1.041,   5.255e-4
1.042,   5.540e-4
1.043,   5.245e-4
1.044,   5.226e-4
1.045,   5.451e-4
1.046,   5.325e-4
1.047,   5.150e-4
1.048,   5.335e-4
1.049,   5.404e-4
1.050,   5.131e-4
1.051,   5.247e-4
1.052,   5.521e-4
1.053,   5.198e-4
1.054,   5.265e-4
1.055,   5.505e-4
1.056,   5.299e-4
1.057,   5.234e-4
1.058,   5.526e-4
1.059,   5.402e-4
1.060,   5.179e-4
1.061,   5.337e-4
1.062,   5.522e-4
1.063,   5.228e-4
1.064,   5.205e-4
1.065,   5.507e-4
1.066,   5.270e-4
1.067,   5.204e-4
1.068,   5.468e-4
1.069,   5.323e-4
1.070,   5.202e-4
1.071,   5.365e-4
1.072,   5.394e-4
1.073,   5.200e-4
1.074,   5.320e-4
1.075,   5.556e-4
1.076,   5.156e-4
1.077,   5.254e-4
1.078,   5.554e-4
1.079,   5.330e-4
1.080,   5.234e-4
1.081,   5.436e-4
1.082,   5.420e-4
1.083,   5.186e-4
1.084,   5.373e-4
1.085,   5.554e-4
1.086,   5.219e-4
1.087,   5.322e-4
1.088,   5.586e-4
1.089,   5.250e-4
1.090,   5.326e-4
1.091,   5.668e-4
1.092,   5.361e-4
1.093,   5.256e-4
1.094,   5.615e-4
1.095,   5.603e-4
1.096,   5.212e-4
1.097,   5.444e-4
1.098,   5.646e-4
1.099,   5.246e-4
1.100,   5.382e-4
1.101,   5.639e-4
1.102,   5.317e-4
1.103,   5.364e-4
1.104,   5.641e-4
1.105,   5.545e-4
1.106,   5.358e-4
1.107,   5.473e-4
1.108,   5.760e-4
1.109,   5.394e-4
1.110,   5.464e-4
1.111,   5.639e-4
1.112,   5.736e-4
1.113,   5.426e-4
1.114,   5.481e-4
1.115,   5.710e-4
1.116,   5.616e-4
1.117,   5.456e-4
1.118,   5.561e-4
1.119,   5.863e-4
1.120,   5.469e-4
1.121,   5.517e-4
1.122,   5.732e-4
1.123,   5.849e-4
1.124,   5.383e-4
1.125,   5.626e-4
1.126,   5.837e-4
1.127,   5.774e-4
1.128,   5.440e-4
1.129,   5.611e-4
1.130,   5.950e-4
1.131,   5.680e-4
1.132,   5.535e-4
1.133,   5.775e-4
1.134,   5.964e-4
1.135,   5.558e-4
1.136,   5.648e-4
1.137,   5.936e-4
1.138,   5.798e-4
1.139,   5.515e-4
1.140,   5.717e-4
1.141,   6.017e-4
1.142,   5.659e-4
1.143,   5.675e-4
1.144,   5.852e-4
1.145,   6.097e-4
1.146,   5.644e-4
1.147,   5.735e-4
1.148,   6.005e-4
1.149,   5.918e-4
1.150,   5.729e-4
1.151,   5.900e-4
1.152,   6.030e-4
1.153,   5.876e-4
1.154,   5.803e-4
1.155,   5.900e-4
1.156,   6.189e-4
1.157,   5.782e-4
1.158,   5.852e-4
1.159,   6.060e-4
1.160,   6.058e-4
1.161,   5.772e-4
1.162,   5.982e-4
1.163,   6.242e-4
1.164,   5.968e-4
1.165,   5.930e-4
1.166,   6.164e-4
1.167,   6.287e-4
1.168,   5.954e-4
1.169,   6.006e-4
1.170,   6.250e-4
1.171,   6.216e-4
1.172,   5.917e-4
1.173,   6.106e-4
1.174,   6.425e-4
1.175,   6.131e-4
1.176,   6.015e-4
1.177,   6.197e-4
1.178,   6.490e-4
1.179,   6.017e-4
1.180,   6.187e-4
1.181,   6.466e-4
1.182,   6.290e-4
1.183,   6.025e-4
1.184,   6.338e-4
1.185,   6.485e-4
1.186,   6.295e-4
1.187,   6.157e-4
1.188,   6.374e-4
1.189,   6.586e-4
1.190,   6.260e-4
1.191,   6.281e-4
1.192,   6.494e-4
1.193,   6.650e-4
1.194,   6.263e-4
1.195,   6.578e-4
1.196,   6.781e-4
1.197,   6.359e-4
1.198,   6.338e-4
1.199,   6.836e-4
1.200,   6.714e-4
1.201,   6.298e-4
1.202,   6.567e-4
1.203,   6.829e-4
1.204,   6.644e-4
1.205,   6.380e-4
1.206,   6.832e-4
1.207,   6.920e-4
1.208,   6.522e-4
1.209,   6.554e-4
1.210,   7.030e-4
1.211,   6.905e-4
1.212,   6.498e-4
1.213,   6.860e-4
1.214,   7.095e-4
1.215,   6.764e-4
1.216,   6.557e-4
1.217,   7.120e-4
1.218,   7.076e-4
1.219,   6.711e-4
1.220,   6.674e-4
1.221,   7.135e-4
1.222,   7.241e-4
1.223,   6.696e-4
1.224,   6.957e-4
1.225,   7.377e-4
1.226,   7.030e-4
1.227,   6.668e-4
1.228,   7.215e-4
1.229,   7.398e-4
1.230,   7.009e-4
1.231,   6.791e-4
1.232,   7.518e-4
1.233,   7.420e-4
1.234,   6.859e-4
1.235,   7.235e-4
1.236,   7.667e-4
1.237,   7.295e-4
1.238,   6.845e-4
1.239,   7.399e-4
1.240,   7.668e-4
1.241,   7.245e-4
1.242,   7.052e-4
1.243,   7.667e-4
1.244,   7.648e-4
1.245,   7.120e-4
1.246,   7.266e-4
1.247,   7.808e-4
1.248,   7.569e-4
1.249,   7.069e-4
1.250,   7.606e-4
1.251,   7.942e-4
1.252,   7.506e-4
1.253,   7.163e-4
1.254,   7.897e-4
1.255,   7.963e-4
1.256,   7.370e-4
1.257,   7.448e-4
1.258,   8.137e-4
1.259,   7.965e-4
1.260,   7.363e-4
1.261,   7.866e-4
1.262,   8.164e-4
1.263,   7.589e-4
1.264,   7.495e-4
1.265,   8.213e-4
1.266,   8.063e-4
1.267,   7.592e-4
1.268,   7.723e-4
1.269,   8.296e-4
1.270,   8.111e-4
1.271,   7.611e-4
1.272,   7.994e-4
1.273,   8.301e-4
1.274,   8.002e-4
1.275,   7.728e-4
1.276,   8.256e-4
1.277,   8.347e-4
1.278,   7.922e-4
1.279,   8.104e-4
1.280,   8.524e-4
1.281,   8.221e-4
1.282,   7.811e-4
1.283,   8.466e-4
1.284,   8.546e-4
1.285,   8.031e-4
1.286,   7.984e-4
1.287,   8.623e-4
1.288,   8.489e-4
1.289,   8.075e-4
1.290,   8.221e-4
1.291,   8.543e-4
1.292,   8.506e-4
1.293,   8.061e-4
1.294,   8.380e-4
1.295,   8.720e-4
1.296,   8.477e-4
1.297,   8.146e-4
1.298,   8.655e-4
1.299,   8.681e-4
1.300,   8.402e-4
1.301,   8.326e-4
1.302,   8.779e-4
1.303,   8.699e-4
1.304,   8.279e-4
1.305,   8.686e-4
1.306,   8.909e-4
1.307,   8.589e-4
1.308,   8.262e-4
1.309,   9.094e-4
1.310,   8.914e-4
1.311,   8.331e-4
1.312,   8.599e-4
1.313,   9.321e-4
1.314,   8.670e-4
1.315,   8.230e-4
1.316,   8.891e-4
1.317,   9.074e-4
1.318,   8.693e-4
1.319,   8.371e-4
1.320,   9.107e-4
1.321,   9.136e-4
1.322,   8.516e-4
1.323,   8.659e-4
1.324,   9.250e-4
1.325,   8.985e-4
1.326,   8.414e-4
1.327,   8.846e-4
1.328,   9.520e-4
1.329,   8.911e-4
1.330,   8.531e-4
1.331,   9.396e-4
1.332,   9.052e-4
1.333,   8.761e-4
1.334,   8.776e-4
1.335,   9.532e-4
1.336,   9.204e-4
1.337,   8.689e-4
1.338,   9.146e-4
1.339,   9.551e-4
1.340,   9.090e-4
1.341,   8.657e-4
1.342,   9.494e-4
1.343,   9.517e-4
1.344,   8.861e-4
1.345,   8.866e-4
1.346,   9.600e-4
1.347,   9.566e-4
1.348,   8.819e-4
1.349,   9.322e-4
1.350,   9.786e-4
1.351,   9.329e-4
1.352,   8.824e-4
1.353,   9.631e-4
1.354,   9.872e-4
1.355,   9.187e-4
1.356,   9.103e-4
1.357,   9.933e-4
1.358,   9.760e-4
1.359,   9.077e-4
1.360,   9.550e-4
1.361,   9.983e-4
1.362,   9.678e-4
1.363,   9.211e-4
1.364,   9.969e-4
1.365,   1.018e-3
1.366,   9.534e-4
1.367,   9.440e-4
1.368,   1.020e-3
1.369,   1.022e-3
1.370,   9.543e-4
1.371,   9.732e-4
1.372,   1.053e-3
1.373,   1.028e-3
1.374,   9.607e-4
1.375,   1.030e-3
1.376,   1.073e-3
1.377,   1.014e-3
1.378,   9.877e-4
1.379,   1.075e-3
1.380,   1.087e-3
1.381,   1.008e-3
1.382,   1.020e-3
1.383,   1.122e-3
1.384,   1.097e-3
1.385,   1.034e-3
1.386,   1.086e-3
1.387,   1.181e-3
1.388,   1.111e-3
1.389,   1.061e-3
1.390,   1.144e-3
1.391,   1.197e-3
1.392,   1.119e-3
1.393,   1.127e-3
1.394,   1.222e-3
1.395,   1.217e-3
1.396,   1.137e-3
1.397,   1.190e-3
1.398,   1.280e-3
1.399,   1.259e-3
1.400,   1.186e-3
1.401,   1.275e-3
1.402,   1.343e-3
1.403,   1.277e-3
1.404,   1.270e-3
1.405,   1.385e-3
1.406,   1.400e-3
1.407,   1.305e-3
1.408,   1.358e-3
1.409,   1.392e-3
1.410,   1.469e-3
1.411,   1.417e-3
1.412,   1.474e-3
1.413,   1.525e-3
1.414,   1.524e-3
1.415,   1.572e-3
1.416,   1.633e-3
1.417,   1.686e-3
1.418,   1.624e-3
1.419,   1.713e-3
1.420,   1.775e-3
1.421,   1.816e-3
1.422,   1.750e-3
1.423,   1.892e-3
1.424,   1.974e-3
1.425,   1.946e-3
1.426,   1.977e-3
1.427,   2.108e-3
1.428,   2.196e-3
1.429,   2.139e-3
1.430,   2.234e-3
1.431,   2.434e-3
1.432,   2.484e-3
1.433,   2.410e-3
1.434,   2.565e-3
1.435,   2.783e-3
1.436,   2.734e-3
1.437,   2.762e-3
1.438,   2.995e-3
1.439,   3.193e-3
1.440,   3.114e-3
1.441,   3.223e-3
1.442,   3.576e-3
1.443,   3.692e-3
1.444,   3.587e-3
1.445,   3.832e-3
1.446,   4.230e-3
1.447,   4.264e-3
1.448,   4.230e-3
1.449,   4.623e-3
1.450,   5.001e-3
1.451,   4.878e-3
1.452,   5.040e-3
1.453,   5.570e-3
1.454,   5.960e-3
1.455,   5.716e-3
1.456,   6.029e-3
1.457,   6.678e-3
1.458,   6.858e-3
1.459,   6.643e-3
1.460,   7.207e-3
1.461,   7.883e-3
1.462,   7.613e-3
1.463,   7.761e-3
1.464,   8.511e-3
1.465,   8.793e-3
1.466,   8.505e-3
1.467,   9.030e-3
1.468,   9.377e-3
1.469,   9.284e-3
1.470,   9.241e-3
1.471,   9.661e-3
1.472,   9.761e-3
1.473,   9.719e-3
1.474,   9.894e-3
1.475,   1.001e-2
1.476,   1.005e-2
1.477,   1.007e-2
1.478,   1.007e-2
1.479,   1.007e-2
1.480,   1.007e-2
1.481,   1.007e-2
1.482,   1.007e-2
1.483,   1.007e-2
1.484,   1.007e-2
1.485,   1.007e-2
1.486,   1.007e-2
1.487,   1.007e-2
1.488,   1.007e-2
1.489,   1.007e-2
1.490,   1.007e-2
1.491,   1.007e-2
1.492,   1.007e-2
1.493,   1.007e-2
1.494,   1.007e-2
1.495,   1.007e-2
1.496,   1.007e-2
1.497,   1.007e-2
1.498,   1.007e-2
1.499,   1.007e-2
1.500,   1.007e-2
1.501,   1.007e-2
1.502,   1.007e-2