File: Experimental Records, Raw Data, and Supplementary Notes and Figures/batch5/final500/B5_BEST_500_#1_High_Quality(#19)-192mV.txt
June 9, 2023   16:21:05
Linear Sweep Voltammetry
File: d:\current work\al_oer\electrochemical test data\batch 5\500\B5_BEST_500_#1_High_Quality(#19)-192mV.txt
Data Source:  Experiment
Instrument Model:  CHI660E
Header:
Note:

Init E (V) = 0.894

Final E (V) = 1.492

Scan Rate (V/s) = 0.010
Sample Interval (V) = 0.001
Quiet Time (sec) = 2
Sensitivity (A/V) = 0.001
Comp R (ohm) = 4.0

Results:

Channel 1:

Potential/V, Current/A
0.894,   1.006e-4
0.895,   1.629e-4
0.896,   1.490e-4
0.897,   1.689e-4
0.898,   1.514e-4
0.899,   1.635e-4
0.900,   1.616e-4
0.901,   1.589e-4
0.902,   1.682e-4
0.903,   1.577e-4
0.904,   1.708e-4
0.905,   1.575e-4
0.906,   1.704e-4
0.907,   1.622e-4
0.908,   1.646e-4
0.909,   1.660e-4
0.910,   1.602e-4
0.911,   1.728e-4
0.912,   1.587e-4
0.913,   1.728e-4
0.914,   1.614e-4
0.915,   1.700e-4
0.916,   1.663e-4
0.917,   1.626e-4
0.918,   1.724e-4
0.919,   1.616e-4
0.920,   1.743e-4
0.921,   1.642e-4
0.922,   1.719e-4
0.923,   1.657e-4
0.924,   1.642e-4
0.925,   1.753e-4
0.926,   1.629e-4
0.927,   1.766e-4
0.928,   1.618e-4
0.929,   1.757e-4
0.930,   1.653e-4
0.931,   1.694e-4
0.932,   1.729e-4
0.933,   1.645e-4
0.934,   1.778e-4
0.935,   1.638e-4
0.936,   1.769e-4
0.937,   1.666e-4
0.938,   1.719e-4
0.939,   1.691e-4
0.940,   1.677e-4
0.941,   1.779e-4
0.942,   1.657e-4
0.943,   1.795e-4
0.944,   1.657e-4
0.945,   1.780e-4
0.946,   1.698e-4
0.947,   1.717e-4
0.948,   1.780e-4
0.949,   1.676e-4
0.950,   1.818e-4
0.951,   1.675e-4
0.952,   1.804e-4
0.953,   1.727e-4
0.954,   1.759e-4
0.955,   1.777e-4
0.956,   1.679e-4
0.957,   1.837e-4
0.958,   1.693e-4
0.959,   1.865e-4
0.960,   1.702e-4
0.961,   1.788e-4
0.962,   1.759e-4
0.963,   1.745e-4
0.964,   1.851e-4
0.965,   1.705e-4
0.966,   1.884e-4
0.967,   1.722e-4
0.968,   1.843e-4
0.969,   1.779e-4
0.970,   1.774e-4
0.971,   1.843e-4
0.972,   1.750e-4
0.973,   1.918e-4
0.974,   1.735e-4
0.975,   1.894e-4
0.976,   1.765e-4
0.977,   1.820e-4
0.978,   1.838e-4
0.979,   1.782e-4
0.980,   1.923e-4
0.981,   1.773e-4
0.982,   1.946e-4
0.983,   1.771e-4
0.984,   1.895e-4
0.985,   1.845e-4
0.986,   1.829e-4
0.987,   1.925e-4
0.988,   1.795e-4
0.989,   1.965e-4
0.990,   1.795e-4
0.991,   1.945e-4
0.992,   1.811e-4
0.993,   1.880e-4
0.994,   1.925e-4
0.995,   1.825e-4
0.996,   1.996e-4
0.997,   1.815e-4
0.998,   1.986e-4
0.999,   1.858e-4
1.000,   1.922e-4
1.001,   1.935e-4
1.002,   1.882e-4
1.003,   2.015e-4
1.004,   1.856e-4
1.005,   2.008e-4
1.006,   1.863e-4
1.007,   1.986e-4
1.008,   1.934e-4
1.009,   1.926e-4
1.010,   2.014e-4
1.011,   1.881e-4
1.012,   2.075e-4
1.013,   1.899e-4
1.014,   2.025e-4
1.015,   1.932e-4
1.016,   1.973e-4
1.017,   2.057e-4
1.018,   1.898e-4
1.019,   2.094e-4
1.020,   1.906e-4
1.021,   2.102e-4
1.022,   1.934e-4
1.023,   2.035e-4
1.024,   2.027e-4
1.025,   1.969e-4
1.026,   2.114e-4
1.027,   1.929e-4
1.028,   2.150e-4
1.029,   1.943e-4
1.030,   2.103e-4
1.031,   2.031e-4
1.032,   2.019e-4
1.033,   2.124e-4
1.034,   1.975e-4
1.035,   2.168e-4
1.036,   1.975e-4
1.037,   2.164e-4
1.038,   2.020e-4
1.039,   2.087e-4
1.040,   2.116e-4
1.041,   2.029e-4
1.042,   2.197e-4
1.043,   1.993e-4
1.044,   2.222e-4
1.045,   2.036e-4
1.046,   2.143e-4
1.047,   2.121e-4
1.048,   2.058e-4
1.049,   2.227e-4
1.050,   2.055e-4
1.051,   2.234e-4
1.052,   2.041e-4
1.053,   2.222e-4
1.054,   2.109e-4
1.055,   2.142e-4
1.056,   2.217e-4
1.057,   2.090e-4
1.058,   2.281e-4
1.059,   2.063e-4
1.060,   2.287e-4
1.061,   2.118e-4
1.062,   2.205e-4
1.063,   2.211e-4
1.064,   2.126e-4
1.065,   2.318e-4
1.066,   2.109e-4
1.067,   2.320e-4
1.068,   2.130e-4
1.069,   2.286e-4
1.070,   2.211e-4
1.071,   2.191e-4
1.072,   2.305e-4
1.073,   2.162e-4
1.074,   2.361e-4
1.075,   2.145e-4
1.076,   2.349e-4
1.077,   2.206e-4
1.078,   2.264e-4
1.079,   2.327e-4
1.080,   2.185e-4
1.081,   2.411e-4
1.082,   2.179e-4
1.083,   2.390e-4
1.084,   2.232e-4
1.085,   2.316e-4
1.086,   2.336e-4
1.087,   2.236e-4
1.088,   2.427e-4
1.089,   2.225e-4
1.090,   2.447e-4
1.091,   2.242e-4
1.092,   2.394e-4
1.093,   2.328e-4
1.094,   2.303e-4
1.095,   2.457e-4
1.096,   2.244e-4
1.097,   2.519e-4
1.098,   2.244e-4
1.099,   2.468e-4
1.100,   2.336e-4
1.101,   2.384e-4
1.102,   2.449e-4
1.103,   2.305e-4
1.104,   2.541e-4
1.105,   2.287e-4
1.106,   2.538e-4
1.107,   2.342e-4
1.108,   2.464e-4
1.109,   2.448e-4
1.110,   2.374e-4
1.111,   2.563e-4
1.112,   2.322e-4
1.113,   2.638e-4
1.114,   2.322e-4
1.115,   2.546e-4
1.116,   2.446e-4
1.117,   2.443e-4
1.118,   2.593e-4
1.119,   2.389e-4
1.120,   2.672e-4
1.121,   2.366e-4
1.122,   2.601e-4
1.123,   2.437e-4
1.124,   2.538e-4
1.125,   2.600e-4
1.126,   2.412e-4
1.127,   2.706e-4
1.128,   2.374e-4
1.129,   2.730e-4
1.130,   2.438e-4
1.131,   2.624e-4
1.132,   2.578e-4
1.133,   2.547e-4
1.134,   2.716e-4
1.135,   2.442e-4
1.136,   2.777e-4
1.137,   2.453e-4
1.138,   2.693e-4
1.139,   2.573e-4
1.140,   2.609e-4
1.141,   2.717e-4
1.142,   2.517e-4
1.143,   2.819e-4
1.144,   2.482e-4
1.145,   2.820e-4
1.146,   2.568e-4
1.147,   2.695e-4
1.148,   2.727e-4
1.149,   2.603e-4
1.150,   2.855e-4
1.151,   2.526e-4
1.152,   2.899e-4
1.153,   2.580e-4
1.154,   2.788e-4
1.155,   2.711e-4
1.156,   2.644e-4
1.157,   2.868e-4
1.158,   2.586e-4
1.159,   2.961e-4
1.160,   2.574e-4
1.161,   2.922e-4
1.162,   2.721e-4
1.163,   2.739e-4
1.164,   2.877e-4
1.165,   2.666e-4
1.166,   2.997e-4
1.167,   2.625e-4
1.168,   2.994e-4
1.169,   2.739e-4
1.170,   2.845e-4
1.171,   2.875e-4
1.172,   2.754e-4
1.173,   3.012e-4
1.174,   2.684e-4
1.175,   3.075e-4
1.176,   2.687e-4
1.177,   3.044e-4
1.178,   2.811e-4
1.179,   2.847e-4
1.180,   3.039e-4
1.181,   2.747e-4
1.182,   3.131e-4
1.183,   2.726e-4
1.184,   3.140e-4
1.185,   2.811e-4
1.186,   2.943e-4
1.187,   3.043e-4
1.188,   2.838e-4
1.189,   3.197e-4
1.190,   2.759e-4
1.191,   3.177e-4
1.192,   2.821e-4
1.193,   3.084e-4
1.194,   3.015e-4
1.195,   2.937e-4
1.196,   3.224e-4
1.197,   2.802e-4
1.198,   3.279e-4
1.199,   2.833e-4
1.200,   3.192e-4
1.201,   3.012e-4
1.202,   3.023e-4
1.203,   3.223e-4
1.204,   2.925e-4
1.205,   3.318e-4
1.206,   2.848e-4
1.207,   3.318e-4
1.208,   2.981e-4
1.209,   3.149e-4
1.210,   3.220e-4
1.211,   2.974e-4
1.212,   3.398e-4
1.213,   2.896e-4
1.214,   3.437e-4
1.215,   2.956e-4
1.216,   3.305e-4
1.217,   3.184e-4
1.218,   3.072e-4
1.219,   3.444e-4
1.220,   2.942e-4
1.221,   3.514e-4
1.222,   2.983e-4
1.223,   3.463e-4
1.224,   3.162e-4
1.225,   3.232e-4
1.226,   3.399e-4
1.227,   3.047e-4
1.228,   3.597e-4
1.229,   2.989e-4
1.230,   3.591e-4
1.231,   3.111e-4
1.232,   3.386e-4
1.233,   3.373e-4
1.234,   3.167e-4
1.235,   3.617e-4
1.236,   3.057e-4
1.237,   3.698e-4
1.238,   3.100e-4
1.239,   3.543e-4
1.240,   3.335e-4
1.241,   3.317e-4
1.242,   3.621e-4
1.243,   3.138e-4
1.244,   3.759e-4
1.245,   3.139e-4
1.246,   3.691e-4
1.247,   3.302e-4
1.248,   3.471e-4
1.249,   3.604e-4
1.250,   3.257e-4
1.251,   3.806e-4
1.252,   3.180e-4
1.253,   3.836e-4
1.254,   3.319e-4
1.255,   3.619e-4
1.256,   3.547e-4
1.257,   3.405e-4
1.258,   3.837e-4
1.259,   3.249e-4
1.260,   3.933e-4
1.261,   3.305e-4
1.262,   3.844e-4
1.263,   3.476e-4
1.264,   3.599e-4
1.265,   3.791e-4
1.266,   3.372e-4
1.267,   3.999e-4
1.268,   3.379e-4
1.269,   3.894e-4
1.270,   3.527e-4
1.271,   3.740e-4
1.272,   3.831e-4
1.273,   3.504e-4
1.274,   4.055e-4
1.275,   3.359e-4
1.276,   4.098e-4
1.277,   3.540e-4
1.278,   3.869e-4
1.279,   3.762e-4
1.280,   3.668e-4
1.281,   4.068e-4
1.282,   3.480e-4
1.283,   4.186e-4
1.284,   3.529e-4
1.285,   4.078e-4
1.286,   3.740e-4
1.287,   3.874e-4
1.288,   4.058e-4
1.289,   3.555e-4
1.290,   4.293e-4
1.291,   3.530e-4
1.292,   4.255e-4
1.293,   3.737e-4
1.294,   4.002e-4
1.295,   4.097e-4
1.296,   3.688e-4
1.297,   4.405e-4
1.298,   3.619e-4
1.299,   4.374e-4
1.300,   3.760e-4
1.301,   4.168e-4
1.302,   4.048e-4
1.303,   3.915e-4
1.304,   4.355e-4
1.305,   3.720e-4
1.306,   4.523e-4
1.307,   3.732e-4
1.308,   4.397e-4
1.309,   4.016e-4
1.310,   4.105e-4
1.311,   4.370e-4
1.312,   3.867e-4
1.313,   4.604e-4
1.314,   3.793e-4
1.315,   4.566e-4
1.316,   4.011e-4
1.317,   4.310e-4
1.318,   4.360e-4
1.319,   4.047e-4
1.320,   4.656e-4
1.321,   3.891e-4
1.322,   4.753e-4
1.323,   3.990e-4
1.324,   4.592e-4
1.325,   4.321e-4
1.326,   4.285e-4
1.327,   4.674e-4
1.328,   4.036e-4
1.329,   4.900e-4
1.330,   4.043e-4
1.331,   4.823e-4
1.332,   4.303e-4
1.333,   4.533e-4
1.334,   4.699e-4
1.335,   4.233e-4
1.336,   5.025e-4
1.337,   4.126e-4
1.338,   5.071e-4
1.339,   4.284e-4
1.340,   4.869e-4
1.341,   4.643e-4
1.342,   4.553e-4
1.343,   5.057e-4
1.344,   4.327e-4
1.345,   5.276e-4
1.346,   4.316e-4
1.347,   5.166e-4
1.348,   4.743e-4
1.349,   4.773e-4
1.350,   5.204e-4
1.351,   4.523e-4
1.352,   5.473e-4
1.353,   4.501e-4
1.354,   5.437e-4
1.355,   4.786e-4
1.356,   5.121e-4
1.357,   5.353e-4
1.358,   4.778e-4
1.359,   5.717e-4
1.360,   4.679e-4
1.361,   5.786e-4
1.362,   4.948e-4
1.363,   5.512e-4
1.364,   5.521e-4
1.365,   5.134e-4
1.366,   6.006e-4
1.367,   4.967e-4
1.368,   6.210e-4
1.369,   5.127e-4
1.370,   6.087e-4
1.371,   5.659e-4
1.372,   5.653e-4
1.373,   6.364e-4
1.374,   5.482e-4
1.375,   6.692e-4
1.376,   5.513e-4
1.377,   6.707e-4
1.378,   6.024e-4
1.379,   6.344e-4
1.380,   6.763e-4
1.381,   6.074e-4
1.382,   7.324e-4
1.383,   6.092e-4
1.384,   7.436e-4
1.385,   6.580e-4
1.386,   7.169e-4
1.387,   7.451e-4
1.388,   6.821e-4
1.389,   8.186e-4
1.390,   6.800e-4
1.391,   8.463e-4
1.392,   7.258e-4
1.393,   8.430e-4
1.394,   8.170e-4
1.395,   8.010e-4
1.396,   9.164e-4
1.397,   7.945e-4
1.398,   9.780e-4
1.399,   8.220e-4
1.400,   9.954e-4
1.401,   9.216e-4
1.402,   9.784e-4
1.403,   1.038e-3
1.404,   9.456e-4
1.405,   1.157e-3
1.406,   9.657e-4
1.407,   1.213e-3
1.408,   1.064e-3
1.409,   1.203e-3
1.410,   1.220e-3
1.411,   1.176e-3
1.412,   1.393e-3
1.413,   1.189e-3
1.414,   1.501e-3
1.415,   1.288e-3
1.416,   1.520e-3
1.417,   1.484e-3
1.418,   1.500e-3
1.419,   1.720e-3
1.420,   1.521e-3
1.421,   1.913e-3
1.422,   1.639e-3
1.423,   1.993e-3
1.424,   1.901e-3
1.425,   2.001e-3
1.426,   2.239e-3
1.427,   2.037e-3
1.428,   2.560e-3
1.429,   2.214e-3
1.430,   2.754e-3
1.431,   2.589e-3
1.432,   2.851e-3
1.433,   3.112e-3
1.434,   2.965e-3
1.435,   3.641e-3
1.436,   3.244e-3
1.437,   4.011e-3
1.438,   3.766e-3
1.439,   4.177e-3
1.440,   4.446e-3
1.441,   4.259e-3
1.442,   5.096e-3
1.443,   4.495e-3
1.444,   5.498e-3
1.445,   4.977e-3
1.446,   5.588e-3
1.447,   5.641e-3
1.448,   5.514e-3
1.449,   6.262e-3
1.450,   5.614e-3
1.451,   6.674e-3
1.452,   6.043e-3
1.453,   6.797e-3
1.454,   6.776e-3
1.455,   6.804e-3
1.456,   7.599e-3
1.457,   7.041e-3
1.458,   8.106e-3
1.459,   7.562e-3
1.460,   8.403e-3
1.461,   8.372e-3
1.462,   8.606e-3
1.463,   9.088e-3
1.464,   8.829e-3
1.465,   9.563e-3
1.466,   9.376e-3
1.467,   9.783e-3
1.468,   9.815e-3
1.469,   1.001e-2
1.470,   1.007e-2
1.471,   1.007e-2
1.472,   1.007e-2
1.473,   1.007e-2
1.474,   1.007e-2
1.475,   1.007e-2
1.476,   1.007e-2
1.477,   1.007e-2
1.478,   1.007e-2
1.479,   1.007e-2
1.480,   1.007e-2
1.481,   1.007e-2
1.482,   1.007e-2
1.483,   1.007e-2
1.484,   1.007e-2
1.485,   1.007e-2
1.486,   1.007e-2
1.487,   1.007e-2
1.488,   1.007e-2
1.489,   1.007e-2
1.490,   1.007e-2
1.491,   1.007e-2
1.492,   1.007e-2