File: Experimental Records, Raw Data, and Supplementary Notes and Figures/batch5/final500/B5_BEST_500_#1_High_Quality(#18)-209mV.txt
June 9, 2023   16:28:52
Linear Sweep Voltammetry
File: d:\current work\al_oer\electrochemical test data\batch 5\500\B5_BEST_500_#1_High_Quality(#18)-209mV.txt
Data Source:  Experiment
Instrument Model:  CHI660E
Header:
Note:

Init E (V) = 0.880

Final E (V) = 1.494

Scan Rate (V/s) = 0.010
Sample Interval (V) = 0.001
Quiet Time (sec) = 2
Sensitivity (A/V) = 0.001
Comp R (ohm) = 6.0

Results:

Channel 1:

Potential/V, Current/A
0.880,   4.222e-4
0.881,   4.463e-4
0.882,   4.495e-4
0.883,   4.499e-4
0.884,   4.522e-4
0.885,   4.496e-4
0.886,   4.470e-4
0.887,   4.472e-4
0.888,   4.436e-4
0.889,   4.413e-4
0.890,   4.411e-4
0.891,   4.356e-4
0.892,   4.342e-4
0.893,   4.337e-4
0.894,   4.282e-4
0.895,   4.271e-4
0.896,   4.261e-4
0.897,   4.196e-4
0.898,   4.196e-4
0.899,   4.183e-4
0.900,   4.127e-4
0.901,   4.128e-4
0.902,   4.111e-4
0.903,   4.052e-4
0.904,   4.062e-4
0.905,   4.037e-4
0.906,   3.993e-4
0.907,   4.003e-4
0.908,   3.969e-4
0.909,   3.927e-4
0.910,   3.936e-4
0.911,   3.901e-4
0.912,   3.870e-4
0.913,   3.875e-4
0.914,   3.834e-4
0.915,   3.815e-4
0.916,   3.813e-4
0.917,   3.776e-4
0.918,   3.762e-4
0.919,   3.758e-4
0.920,   3.719e-4
0.921,   3.717e-4
0.922,   3.709e-4
0.923,   3.669e-4
0.924,   3.668e-4
0.925,   3.654e-4
0.926,   3.619e-4
0.927,   3.622e-4
0.928,   3.612e-4
0.929,   3.571e-4
0.930,   3.573e-4
0.931,   3.567e-4
0.932,   3.520e-4
0.933,   3.539e-4
0.934,   3.525e-4
0.935,   3.486e-4
0.936,   3.500e-4
0.937,   3.483e-4
0.938,   3.449e-4
0.939,   3.468e-4
0.940,   3.442e-4
0.941,   3.420e-4
0.942,   3.443e-4
0.943,   3.401e-4
0.944,   3.394e-4
0.945,   3.400e-4
0.946,   3.351e-4
0.947,   3.366e-4
0.948,   3.368e-4
0.949,   3.327e-4
0.950,   3.346e-4
0.951,   3.339e-4
0.952,   3.308e-4
0.953,   3.318e-4
0.954,   3.308e-4
0.955,   3.282e-4
0.956,   3.289e-4
0.957,   3.282e-4
0.958,   3.251e-4
0.959,   3.265e-4
0.960,   3.258e-4
0.961,   3.228e-4
0.962,   3.243e-4
0.963,   3.232e-4
0.964,   3.204e-4
0.965,   3.222e-4
0.966,   3.210e-4
0.967,   3.182e-4
0.968,   3.199e-4
0.969,   3.186e-4
0.970,   3.166e-4
0.971,   3.176e-4
0.972,   3.153e-4
0.973,   3.150e-4
0.974,   3.163e-4
0.975,   3.138e-4
0.976,   3.147e-4
0.977,   3.148e-4
0.978,   3.119e-4
0.979,   3.125e-4
0.980,   3.125e-4
0.981,   3.096e-4
0.982,   3.109e-4
0.983,   3.109e-4
0.984,   3.083e-4
0.985,   3.095e-4
0.986,   3.094e-4
0.987,   3.068e-4
0.988,   3.080e-4
0.989,   3.078e-4
0.990,   3.048e-4
0.991,   3.072e-4
0.992,   3.060e-4
0.993,   3.037e-4
0.994,   3.048e-4
0.995,   3.039e-4
0.996,   3.024e-4
0.997,   3.046e-4
0.998,   3.029e-4
0.999,   3.017e-4
1.000,   3.034e-4
1.001,   3.016e-4
1.002,   3.015e-4
1.003,   3.024e-4
1.004,   2.999e-4
1.005,   2.998e-4
1.006,   3.009e-4
1.007,   2.994e-4
1.008,   3.001e-4
1.009,   3.002e-4
1.010,   2.977e-4
1.011,   2.990e-4
1.012,   2.986e-4
1.013,   2.967e-4
1.014,   2.982e-4
1.015,   2.983e-4
1.016,   2.960e-4
1.017,   2.976e-4
1.018,   2.969e-4
1.019,   2.954e-4
1.020,   2.974e-4
1.021,   2.970e-4
1.022,   2.941e-4
1.023,   2.967e-4
1.024,   2.952e-4
1.025,   2.946e-4
1.026,   2.974e-4
1.027,   2.951e-4
1.028,   2.946e-4
1.029,   2.960e-4
1.030,   2.939e-4
1.031,   2.944e-4
1.032,   2.956e-4
1.033,   2.922e-4
1.034,   2.939e-4
1.035,   2.950e-4
1.036,   2.928e-4
1.037,   2.941e-4
1.038,   2.946e-4
1.039,   2.924e-4
1.040,   2.943e-4
1.041,   2.940e-4
1.042,   2.921e-4
1.043,   2.943e-4
1.044,   2.939e-4
1.045,   2.919e-4
1.046,   2.939e-4
1.047,   2.934e-4
1.048,   2.918e-4
1.049,   2.941e-4
1.050,   2.935e-4
1.051,   2.926e-4
1.052,   2.945e-4
1.053,   2.925e-4
1.054,   2.923e-4
1.055,   2.947e-4
1.056,   2.929e-4
1.057,   2.929e-4
1.058,   2.943e-4
1.059,   2.926e-4
1.060,   2.934e-4
1.061,   2.946e-4
1.062,   2.931e-4
1.063,   2.936e-4
1.064,   2.945e-4
1.065,   2.928e-4
1.066,   2.943e-4
1.067,   2.950e-4
1.068,   2.935e-4
1.069,   2.949e-4
1.070,   2.953e-4
1.071,   2.934e-4
1.072,   2.955e-4
1.073,   2.964e-4
1.074,   2.933e-4
1.075,   2.961e-4
1.076,   2.958e-4
1.077,   2.945e-4
1.078,   2.969e-4
1.079,   2.972e-4
1.080,   2.952e-4
1.081,   2.983e-4
1.082,   2.961e-4
1.083,   2.964e-4
1.084,   2.985e-4
1.085,   2.968e-4
1.086,   2.975e-4
1.087,   2.996e-4
1.088,   2.978e-4
1.089,   2.985e-4
1.090,   3.002e-4
1.091,   2.982e-4
1.092,   3.009e-4
1.093,   3.014e-4
1.094,   2.994e-4
1.095,   3.002e-4
1.096,   3.020e-4
1.097,   3.004e-4
1.098,   3.020e-4
1.099,   3.025e-4
1.100,   3.014e-4
1.101,   3.027e-4
1.102,   3.035e-4
1.103,   3.026e-4
1.104,   3.047e-4
1.105,   3.045e-4
1.106,   3.024e-4
1.107,   3.046e-4
1.108,   3.046e-4
1.109,   3.037e-4
1.110,   3.065e-4
1.111,   3.055e-4
1.112,   3.049e-4
1.113,   3.076e-4
1.114,   3.061e-4
1.115,   3.067e-4
1.116,   3.083e-4
1.117,   3.064e-4
1.118,   3.079e-4
1.119,   3.091e-4
1.120,   3.073e-4
1.121,   3.085e-4
1.122,   3.105e-4
1.123,   3.075e-4
1.124,   3.094e-4
1.125,   3.119e-4
1.126,   3.094e-4
1.127,   3.110e-4
1.128,   3.110e-4
1.129,   3.100e-4
1.130,   3.118e-4
1.131,   3.128e-4
1.132,   3.110e-4
1.133,   3.127e-4
1.134,   3.136e-4
1.135,   3.118e-4
1.136,   3.140e-4
1.137,   3.141e-4
1.138,   3.130e-4
1.139,   3.160e-4
1.140,   3.131e-4
1.141,   3.145e-4
1.142,   3.166e-4
1.143,   3.139e-4
1.144,   3.175e-4
1.145,   3.182e-4
1.146,   3.144e-4
1.147,   3.177e-4
1.148,   3.183e-4
1.149,   3.158e-4
1.150,   3.193e-4
1.151,   3.201e-4
1.152,   3.182e-4
1.153,   3.206e-4
1.154,   3.219e-4
1.155,   3.199e-4
1.156,   3.201e-4
1.157,   3.223e-4
1.158,   3.210e-4
1.159,   3.224e-4
1.160,   3.238e-4
1.161,   3.227e-4
1.162,   3.248e-4
1.163,   3.229e-4
1.164,   3.238e-4
1.165,   3.265e-4
1.166,   3.259e-4
1.167,   3.247e-4
1.168,   3.281e-4
1.169,   3.265e-4
1.170,   3.267e-4
1.171,   3.294e-4
1.172,   3.255e-4
1.173,   3.294e-4
1.174,   3.320e-4
1.175,   3.262e-4
1.176,   3.313e-4
1.177,   3.335e-4
1.178,   3.280e-4
1.179,   3.331e-4
1.180,   3.339e-4
1.181,   3.312e-4
1.182,   3.350e-4
1.183,   3.357e-4
1.184,   3.337e-4
1.185,   3.362e-4
1.186,   3.363e-4
1.187,   3.348e-4
1.188,   3.384e-4
1.189,   3.378e-4
1.190,   3.373e-4
1.191,   3.405e-4
1.192,   3.394e-4
1.193,   3.400e-4
1.194,   3.428e-4
1.195,   3.414e-4
1.196,   3.421e-4
1.197,   3.448e-4
1.198,   3.424e-4
1.199,   3.448e-4
1.200,   3.478e-4
1.201,   3.448e-4
1.202,   3.466e-4
1.203,   3.480e-4
1.204,   3.457e-4
1.205,   3.494e-4
1.206,   3.507e-4
1.207,   3.486e-4
1.208,   3.518e-4
1.209,   3.538e-4
1.210,   3.518e-4
1.211,   3.543e-4
1.212,   3.552e-4
1.213,   3.555e-4
1.214,   3.573e-4
1.215,   3.571e-4
1.216,   3.576e-4
1.217,   3.585e-4
1.218,   3.599e-4
1.219,   3.592e-4
1.220,   3.615e-4
1.221,   3.627e-4
1.222,   3.612e-4
1.223,   3.651e-4
1.224,   3.629e-4
1.225,   3.638e-4
1.226,   3.668e-4
1.227,   3.654e-4
1.228,   3.672e-4
1.229,   3.699e-4
1.230,   3.671e-4
1.231,   3.702e-4
1.232,   3.723e-4
1.233,   3.707e-4
1.234,   3.727e-4
1.235,   3.747e-4
1.236,   3.719e-4
1.237,   3.758e-4
1.238,   3.775e-4
1.239,   3.756e-4
1.240,   3.791e-4
1.241,   3.798e-4
1.242,   3.783e-4
1.243,   3.814e-4
1.244,   3.821e-4
1.245,   3.812e-4
1.246,   3.846e-4
1.247,   3.848e-4
1.248,   3.854e-4
1.249,   3.878e-4
1.250,   3.871e-4
1.251,   3.877e-4
1.252,   3.903e-4
1.253,   3.895e-4
1.254,   3.908e-4
1.255,   3.935e-4
1.256,   3.912e-4
1.257,   3.943e-4
1.258,   3.967e-4
1.259,   3.943e-4
1.260,   3.978e-4
1.261,   3.992e-4
1.262,   3.974e-4
1.263,   4.001e-4
1.264,   4.019e-4
1.265,   4.004e-4
1.266,   4.026e-4
1.267,   4.033e-4
1.268,   4.022e-4
1.269,   4.047e-4
1.270,   4.061e-4
1.271,   4.052e-4
1.272,   4.070e-4
1.273,   4.079e-4
1.274,   4.076e-4
1.275,   4.098e-4
1.276,   4.102e-4
1.277,   4.114e-4
1.278,   4.110e-4
1.279,   4.119e-4
1.280,   4.141e-4
1.281,   4.165e-4
1.282,   4.149e-4
1.283,   4.159e-4
1.284,   4.186e-4
1.285,   4.172e-4
1.286,   4.188e-4
1.287,   4.207e-4
1.288,   4.193e-4
1.289,   4.208e-4
1.290,   4.222e-4
1.291,   4.220e-4
1.292,   4.234e-4
1.293,   4.254e-4
1.294,   4.244e-4
1.295,   4.264e-4
1.296,   4.275e-4
1.297,   4.272e-4
1.298,   4.292e-4
1.299,   4.316e-4
1.300,   4.291e-4
1.301,   4.319e-4
1.302,   4.332e-4
1.303,   4.315e-4
1.304,   4.353e-4
1.305,   4.351e-4
1.306,   4.331e-4
1.307,   4.384e-4
1.308,   4.358e-4
1.309,   4.363e-4
1.310,   4.422e-4
1.311,   4.394e-4
1.312,   4.396e-4
1.313,   4.452e-4
1.314,   4.414e-4
1.315,   4.421e-4
1.316,   4.463e-4
1.317,   4.446e-4
1.318,   4.454e-4
1.319,   4.488e-4
1.320,   4.493e-4
1.321,   4.478e-4
1.322,   4.513e-4
1.323,   4.502e-4
1.324,   4.526e-4
1.325,   4.547e-4
1.326,   4.538e-4
1.327,   4.561e-4
1.328,   4.568e-4
1.329,   4.551e-4
1.330,   4.613e-4
1.331,   4.622e-4
1.332,   4.563e-4
1.333,   4.651e-4
1.334,   4.626e-4
1.335,   4.617e-4
1.336,   4.702e-4
1.337,   4.657e-4
1.338,   4.655e-4
1.339,   4.742e-4
1.340,   4.693e-4
1.341,   4.706e-4
1.342,   4.774e-4
1.343,   4.708e-4
1.344,   4.769e-4
1.345,   4.828e-4
1.346,   4.733e-4
1.347,   4.820e-4
1.348,   4.864e-4
1.349,   4.793e-4
1.350,   4.899e-4
1.351,   4.857e-4
1.352,   4.854e-4
1.353,   5.005e-4
1.354,   4.868e-4
1.355,   4.900e-4
1.356,   5.111e-4
1.357,   4.826e-4
1.358,   5.089e-4
1.359,   5.060e-4
1.360,   4.897e-4
1.361,   5.280e-4
1.362,   4.908e-4
1.363,   5.261e-4
1.364,   5.006e-4
1.365,   5.082e-4
1.366,   5.315e-4
1.367,   4.972e-4
1.368,   5.524e-4
1.369,   4.886e-4
1.370,   5.548e-4
1.371,   5.108e-4
1.372,   5.581e-4
1.373,   5.085e-4
1.374,   5.778e-4
1.375,   5.202e-4
1.376,   5.539e-4
1.377,   5.239e-4
1.378,   5.690e-4
1.379,   5.633e-4
1.380,   5.399e-4
1.381,   5.929e-4
1.382,   5.542e-4
1.383,   5.633e-4
1.384,   6.201e-4
1.385,   5.432e-4
1.386,   5.876e-4
1.387,   6.422e-4
1.388,   5.380e-4
1.389,   6.154e-4
1.390,   6.674e-4
1.391,   5.370e-4
1.392,   6.416e-4
1.393,   6.845e-4
1.394,   5.520e-4
1.395,   6.606e-4
1.396,   7.007e-4
1.397,   5.818e-4
1.398,   6.804e-4
1.399,   6.987e-4
1.400,   6.288e-4
1.401,   7.085e-4
1.402,   7.215e-4
1.403,   6.643e-4
1.404,   7.415e-4
1.405,   7.687e-4
1.406,   7.612e-4
1.407,   7.202e-4
1.408,   7.542e-4
1.409,   8.264e-4
1.410,   7.617e-4
1.411,   8.081e-4
1.412,   8.263e-4
1.413,   9.032e-4
1.414,   8.900e-4
1.415,   9.239e-4
1.416,   8.850e-4
1.417,   8.596e-4
1.418,   9.610e-4
1.419,   9.695e-4
1.420,   1.106e-3
1.421,   1.021e-3
1.422,   1.088e-3
1.423,   1.096e-3
1.424,   1.181e-3
1.425,   1.115e-3
1.426,   1.167e-3
1.427,   1.319e-3
1.428,   1.272e-3
1.429,   1.313e-3
1.430,   1.457e-3
1.431,   1.459e-3
1.432,   1.487e-3
1.433,   1.619e-3
1.434,   1.633e-3
1.435,   1.662e-3
1.436,   1.838e-3
1.437,   1.814e-3
1.438,   1.878e-3
1.439,   2.046e-3
1.440,   2.045e-3
1.441,   2.113e-3
1.442,   2.209e-3
1.443,   2.282e-3
1.444,   2.443e-3
1.445,   2.420e-3
1.446,   2.647e-3
1.447,   2.763e-3
1.448,   2.890e-3
1.449,   2.854e-3
1.450,   3.085e-3
1.451,   3.175e-3
1.452,   3.434e-3
1.453,   3.316e-3
1.454,   3.479e-3
1.455,   3.761e-3
1.456,   3.886e-3
1.457,   4.209e-3
1.458,   4.505e-3
1.459,   4.404e-3
1.460,   4.740e-3
1.461,   5.127e-3
1.462,   5.081e-3
1.463,   5.460e-3
1.464,   5.847e-3
1.465,   5.812e-3
1.466,   6.166e-3
1.467,   6.649e-3
1.468,   6.599e-3
1.469,   7.016e-3
1.470,   7.526e-3
1.471,   7.524e-3
1.472,   8.032e-3
1.473,   8.503e-3
1.474,   8.578e-3
1.475,   9.278e-3
1.476,   9.586e-3
1.477,   9.499e-3
1.478,   9.867e-3
1.479,   9.935e-3
1.480,   9.973e-3
1.481,   1.006e-2
1.482,   1.007e-2
1.483,   1.007e-2
1.484,   1.007e-2
1.485,   1.007e-2
1.486,   1.007e-2
1.487,   1.007e-2
1.488,   1.007e-2
1.489,   1.007e-2
1.490,   1.007e-2
1.491,   1.007e-2
1.492,   1.007e-2
1.493,   1.007e-2
1.494,   1.007e-2