File: Experimental Records, Raw Data, and Supplementary Notes and Figures/batch5/final500/B5_BEST_500_#1_Full(#2)-243mV.txt
June 9, 2023   11:31:35
Linear Sweep Voltammetry
File: d:\current work\al_oer\electrochemical test data\batch 5\500\B5_BEST_500_#1_Full(#2)-243mV.txt
Data Source:  Experiment
Instrument Model:  CHI660E
Header:
Note:

Init E (V) = 0.908

Final E (V) = 1.565

Scan Rate (V/s) = 0.010
Sample Interval (V) = 0.001
Quiet Time (sec) = 2
Sensitivity (A/V) = 0.001
Comp R (ohm) = 5.0

Results:

Channel 1:

Potential/V, Current/A
0.908,   5.400e-4
0.909,   5.587e-4
0.910,   5.576e-4
0.911,   5.625e-4
0.912,   5.615e-4
0.913,   5.538e-4
0.914,   5.516e-4
0.915,   5.521e-4
0.916,   5.441e-4
0.917,   5.400e-4
0.918,   5.408e-4
0.919,   5.335e-4
0.920,   5.284e-4
0.921,   5.283e-4
0.922,   5.233e-4
0.923,   5.150e-4
0.924,   5.169e-4
0.925,   5.109e-4
0.926,   5.040e-4
0.927,   5.048e-4
0.928,   5.009e-4
0.929,   4.932e-4
0.930,   4.931e-4
0.931,   4.898e-4
0.932,   4.843e-4
0.933,   4.806e-4
0.934,   4.823e-4
0.935,   4.750e-4
0.936,   4.706e-4
0.937,   4.717e-4
0.938,   4.671e-4
0.939,   4.610e-4
0.940,   4.646e-4
0.941,   4.593e-4
0.942,   4.535e-4
0.943,   4.541e-4
0.944,   4.527e-4
0.945,   4.468e-4
0.946,   4.461e-4
0.947,   4.447e-4
0.948,   4.383e-4
0.949,   4.359e-4
0.950,   4.371e-4
0.951,   4.335e-4
0.952,   4.296e-4
0.953,   4.308e-4
0.954,   4.280e-4
0.955,   4.235e-4
0.956,   4.245e-4
0.957,   4.232e-4
0.958,   4.173e-4
0.959,   4.164e-4
0.960,   4.176e-4
0.961,   4.129e-4
0.962,   4.112e-4
0.963,   4.125e-4
0.964,   4.093e-4
0.965,   4.056e-4
0.966,   4.070e-4
0.967,   4.047e-4
0.968,   4.006e-4
0.969,   4.025e-4
0.970,   4.010e-4
0.971,   3.965e-4
0.972,   3.971e-4
0.973,   3.961e-4
0.974,   3.916e-4
0.975,   3.921e-4
0.976,   3.925e-4
0.977,   3.888e-4
0.978,   3.882e-4
0.979,   3.881e-4
0.980,   3.870e-4
0.981,   3.834e-4
0.982,   3.867e-4
0.983,   3.840e-4
0.984,   3.796e-4
0.985,   3.828e-4
0.986,   3.817e-4
0.987,   3.772e-4
0.988,   3.782e-4
0.989,   3.783e-4
0.990,   3.739e-4
0.991,   3.752e-4
0.992,   3.766e-4
0.993,   3.718e-4
0.994,   3.719e-4
0.995,   3.738e-4
0.996,   3.705e-4
0.997,   3.688e-4
0.998,   3.705e-4
0.999,   3.685e-4
1.000,   3.657e-4
1.001,   3.677e-4
1.002,   3.662e-4
1.003,   3.638e-4
1.004,   3.659e-4
1.005,   3.659e-4
1.006,   3.622e-4
1.007,   3.631e-4
1.008,   3.645e-4
1.009,   3.608e-4
1.010,   3.612e-4
1.011,   3.630e-4
1.012,   3.602e-4
1.013,   3.593e-4
1.014,   3.618e-4
1.015,   3.592e-4
1.016,   3.571e-4
1.017,   3.590e-4
1.018,   3.591e-4
1.019,   3.556e-4
1.020,   3.583e-4
1.021,   3.577e-4
1.022,   3.539e-4
1.023,   3.565e-4
1.024,   3.569e-4
1.025,   3.534e-4
1.026,   3.547e-4
1.027,   3.560e-4
1.028,   3.545e-4
1.029,   3.540e-4
1.030,   3.547e-4
1.031,   3.537e-4
1.032,   3.525e-4
1.033,   3.542e-4
1.034,   3.530e-4
1.035,   3.520e-4
1.036,   3.531e-4
1.037,   3.536e-4
1.038,   3.515e-4
1.039,   3.526e-4
1.040,   3.540e-4
1.041,   3.511e-4
1.042,   3.517e-4
1.043,   3.531e-4
1.044,   3.523e-4
1.045,   3.512e-4
1.046,   3.532e-4
1.047,   3.532e-4
1.048,   3.507e-4
1.049,   3.532e-4
1.050,   3.533e-4
1.051,   3.509e-4
1.052,   3.530e-4
1.053,   3.545e-4
1.054,   3.514e-4
1.055,   3.531e-4
1.056,   3.549e-4
1.057,   3.521e-4
1.058,   3.533e-4
1.059,   3.548e-4
1.060,   3.530e-4
1.061,   3.525e-4
1.062,   3.562e-4
1.063,   3.551e-4
1.064,   3.528e-4
1.065,   3.562e-4
1.066,   3.565e-4
1.067,   3.544e-4
1.068,   3.568e-4
1.069,   3.573e-4
1.070,   3.550e-4
1.071,   3.565e-4
1.072,   3.592e-4
1.073,   3.562e-4
1.074,   3.572e-4
1.075,   3.601e-4
1.076,   3.583e-4
1.077,   3.578e-4
1.078,   3.617e-4
1.079,   3.607e-4
1.080,   3.586e-4
1.081,   3.629e-4
1.082,   3.631e-4
1.083,   3.607e-4
1.084,   3.642e-4
1.085,   3.651e-4
1.086,   3.617e-4
1.087,   3.643e-4
1.088,   3.675e-4
1.089,   3.646e-4
1.090,   3.651e-4
1.091,   3.702e-4
1.092,   3.688e-4
1.093,   3.659e-4
1.094,   3.719e-4
1.095,   3.713e-4
1.096,   3.680e-4
1.097,   3.728e-4
1.098,   3.744e-4
1.099,   3.715e-4
1.100,   3.748e-4
1.101,   3.765e-4
1.102,   3.735e-4
1.103,   3.752e-4
1.104,   3.795e-4
1.105,   3.777e-4
1.106,   3.767e-4
1.107,   3.816e-4
1.108,   3.820e-4
1.109,   3.798e-4
1.110,   3.845e-4
1.111,   3.855e-4
1.112,   3.815e-4
1.113,   3.869e-4
1.114,   3.891e-4
1.115,   3.848e-4
1.116,   3.889e-4
1.117,   3.936e-4
1.118,   3.891e-4
1.119,   3.909e-4
1.120,   3.959e-4
1.121,   3.938e-4
1.122,   3.928e-4
1.123,   3.983e-4
1.124,   3.990e-4
1.125,   3.953e-4
1.126,   4.012e-4
1.127,   4.031e-4
1.128,   3.990e-4
1.129,   4.041e-4
1.130,   4.087e-4
1.131,   4.040e-4
1.132,   4.066e-4
1.133,   4.125e-4
1.134,   4.086e-4
1.135,   4.095e-4
1.136,   4.154e-4
1.137,   4.135e-4
1.138,   4.121e-4
1.139,   4.189e-4
1.140,   4.190e-4
1.141,   4.158e-4
1.142,   4.216e-4
1.143,   4.238e-4
1.144,   4.199e-4
1.145,   4.239e-4
1.146,   4.287e-4
1.147,   4.247e-4
1.148,   4.273e-4
1.149,   4.334e-4
1.150,   4.302e-4
1.151,   4.304e-4
1.152,   4.367e-4
1.153,   4.361e-4
1.154,   4.337e-4
1.155,   4.396e-4
1.156,   4.419e-4
1.157,   4.385e-4
1.158,   4.433e-4
1.159,   4.469e-4
1.160,   4.430e-4
1.161,   4.473e-4
1.162,   4.514e-4
1.163,   4.485e-4
1.164,   4.527e-4
1.165,   4.578e-4
1.166,   4.541e-4
1.167,   4.552e-4
1.168,   4.620e-4
1.169,   4.604e-4
1.170,   4.593e-4
1.171,   4.661e-4
1.172,   4.661e-4
1.173,   4.630e-4
1.174,   4.693e-4
1.175,   4.727e-4
1.176,   4.671e-4
1.177,   4.725e-4
1.178,   4.773e-4
1.179,   4.739e-4
1.180,   4.761e-4
1.181,   4.827e-4
1.182,   4.792e-4
1.183,   4.815e-4
1.184,   4.879e-4
1.185,   4.880e-4
1.186,   4.836e-4
1.187,   4.898e-4
1.188,   4.938e-4
1.189,   4.882e-4
1.190,   4.953e-4
1.191,   4.998e-4
1.192,   4.947e-4
1.193,   4.985e-4
1.194,   5.061e-4
1.195,   5.006e-4
1.196,   5.037e-4
1.197,   5.129e-4
1.198,   5.080e-4
1.199,   5.079e-4
1.200,   5.161e-4
1.201,   5.158e-4
1.202,   5.118e-4
1.203,   5.209e-4
1.204,   5.239e-4
1.205,   5.178e-4
1.206,   5.257e-4
1.207,   5.324e-4
1.208,   5.239e-4
1.209,   5.280e-4
1.210,   5.375e-4
1.211,   5.314e-4
1.212,   5.345e-4
1.213,   5.443e-4
1.214,   5.404e-4
1.215,   5.381e-4
1.216,   5.490e-4
1.217,   5.508e-4
1.218,   5.441e-4
1.219,   5.526e-4
1.220,   5.580e-4
1.221,   5.491e-4
1.222,   5.578e-4
1.223,   5.658e-4
1.224,   5.573e-4
1.225,   5.615e-4
1.226,   5.751e-4
1.227,   5.652e-4
1.228,   5.665e-4
1.229,   5.789e-4
1.230,   5.772e-4
1.231,   5.729e-4
1.232,   5.843e-4
1.233,   5.874e-4
1.234,   5.775e-4
1.235,   5.891e-4
1.236,   5.961e-4
1.237,   5.863e-4
1.238,   5.952e-4
1.239,   6.048e-4
1.240,   5.951e-4
1.241,   6.009e-4
1.242,   6.125e-4
1.243,   6.081e-4
1.244,   6.060e-4
1.245,   6.186e-4
1.246,   6.170e-4
1.247,   6.122e-4
1.248,   6.234e-4
1.249,   6.273e-4
1.250,   6.168e-4
1.251,   6.294e-4
1.252,   6.385e-4
1.253,   6.254e-4
1.254,   6.385e-4
1.255,   6.471e-4
1.256,   6.369e-4
1.257,   6.431e-4
1.258,   6.555e-4
1.259,   6.488e-4
1.260,   6.492e-4
1.261,   6.615e-4
1.262,   6.620e-4
1.263,   6.553e-4
1.264,   6.688e-4
1.265,   6.714e-4
1.266,   6.632e-4
1.267,   6.784e-4
1.268,   6.837e-4
1.269,   6.696e-4
1.270,   6.846e-4
1.271,   6.953e-4
1.272,   6.823e-4
1.273,   6.895e-4
1.274,   7.056e-4
1.275,   6.960e-4
1.276,   6.971e-4
1.277,   7.120e-4
1.278,   7.081e-4
1.279,   7.035e-4
1.280,   7.209e-4
1.281,   7.232e-4
1.282,   7.143e-4
1.283,   7.304e-4
1.284,   7.369e-4
1.285,   7.223e-4
1.286,   7.365e-4
1.287,   7.483e-4
1.288,   7.329e-4
1.289,   7.430e-4
1.290,   7.609e-4
1.291,   7.485e-4
1.292,   7.510e-4
1.293,   7.706e-4
1.294,   7.652e-4
1.295,   7.594e-4
1.296,   7.791e-4
1.297,   7.806e-4
1.298,   7.677e-4
1.299,   7.907e-4
1.300,   7.971e-4
1.301,   7.831e-4
1.302,   7.967e-4
1.303,   8.103e-4
1.304,   7.967e-4
1.305,   8.045e-4
1.306,   8.244e-4
1.307,   8.132e-4
1.308,   8.125e-4
1.309,   8.346e-4
1.310,   8.339e-4
1.311,   8.269e-4
1.312,   8.431e-4
1.313,   8.495e-4
1.314,   8.398e-4
1.315,   8.555e-4
1.316,   8.699e-4
1.317,   8.523e-4
1.318,   8.637e-4
1.319,   8.829e-4
1.320,   8.679e-4
1.321,   8.762e-4
1.322,   8.971e-4
1.323,   8.878e-4
1.324,   8.881e-4
1.325,   9.088e-4
1.326,   9.118e-4
1.327,   8.993e-4
1.328,   9.228e-4
1.329,   9.277e-4
1.330,   9.149e-4
1.331,   9.355e-4
1.332,   9.477e-4
1.333,   9.341e-4
1.334,   9.478e-4
1.335,   9.656e-4
1.336,   9.512e-4
1.337,   9.580e-4
1.338,   9.812e-4
1.339,   9.780e-4
1.340,   9.771e-4
1.341,   9.992e-4
1.342,   9.931e-4
1.343,   9.816e-4
1.344,   1.010e-3
1.345,   1.014e-3
1.346,   9.973e-4
1.347,   1.027e-3
1.348,   1.035e-3
1.349,   1.014e-3
1.350,   1.037e-3
1.351,   1.056e-3
1.352,   1.034e-3
1.353,   1.045e-3
1.354,   1.071e-3
1.355,   1.061e-3
1.356,   1.057e-3
1.357,   1.088e-3
1.358,   1.083e-3
1.359,   1.068e-3
1.360,   1.102e-3
1.361,   1.107e-3
1.362,   1.081e-3
1.363,   1.114e-3
1.364,   1.129e-3
1.365,   1.099e-3
1.366,   1.125e-3
1.367,   1.152e-3
1.368,   1.124e-3
1.369,   1.135e-3
1.370,   1.164e-3
1.371,   1.148e-3
1.372,   1.141e-3
1.373,   1.177e-3
1.374,   1.174e-3
1.375,   1.155e-3
1.376,   1.190e-3
1.377,   1.198e-3
1.378,   1.168e-3
1.379,   1.203e-3
1.380,   1.217e-3
1.381,   1.180e-3
1.382,   1.217e-3
1.383,   1.239e-3
1.384,   1.208e-3
1.385,   1.222e-3
1.386,   1.254e-3
1.387,   1.231e-3
1.388,   1.233e-3
1.389,   1.269e-3
1.390,   1.255e-3
1.391,   1.234e-3
1.392,   1.278e-3
1.393,   1.281e-3
1.394,   1.253e-3
1.395,   1.287e-3
1.396,   1.302e-3
1.397,   1.270e-3
1.398,   1.298e-3
1.399,   1.328e-3
1.400,   1.291e-3
1.401,   1.302e-3
1.402,   1.333e-3
1.403,   1.321e-3
1.404,   1.306e-3
1.405,   1.345e-3
1.406,   1.342e-3
1.407,   1.322e-3
1.408,   1.362e-3
1.409,   1.375e-3
1.410,   1.331e-3
1.411,   1.374e-3
1.412,   1.399e-3
1.413,   1.349e-3
1.414,   1.382e-3
1.415,   1.414e-3
1.416,   1.369e-3
1.417,   1.388e-3
1.418,   1.431e-3
1.419,   1.405e-3
1.420,   1.397e-3
1.421,   1.443e-3
1.422,   1.443e-3
1.423,   1.405e-3
1.424,   1.451e-3
1.425,   1.473e-3
1.426,   1.415e-3
1.427,   1.472e-3
1.428,   1.497e-3
1.429,   1.449e-3
1.430,   1.483e-3
1.431,   1.513e-3
1.432,   1.465e-3
1.433,   1.486e-3
1.434,   1.525e-3
1.435,   1.496e-3
1.436,   1.493e-3
1.437,   1.549e-3
1.438,   1.534e-3
1.439,   1.504e-3
1.440,   1.562e-3
1.441,   1.556e-3
1.442,   1.513e-3
1.443,   1.572e-3
1.444,   1.595e-3
1.445,   1.533e-3
1.446,   1.584e-3
1.447,   1.633e-3
1.448,   1.573e-3
1.449,   1.600e-3
1.450,   1.663e-3
1.451,   1.618e-3
1.452,   1.611e-3
1.453,   1.699e-3
1.454,   1.675e-3
1.455,   1.642e-3
1.456,   1.730e-3
1.457,   1.727e-3
1.458,   1.653e-3
1.459,   1.756e-3
1.460,   1.779e-3
1.461,   1.711e-3
1.462,   1.785e-3
1.463,   1.810e-3
1.464,   1.751e-3
1.465,   1.815e-3
1.466,   1.859e-3
1.467,   1.829e-3
1.468,   1.849e-3
1.469,   1.921e-3
1.470,   1.899e-3
1.471,   1.901e-3
1.472,   1.973e-3
1.473,   1.990e-3
1.474,   1.969e-3
1.475,   2.038e-3
1.476,   2.078e-3
1.477,   2.060e-3
1.478,   2.139e-3
1.479,   2.175e-3
1.480,   2.122e-3
1.481,   2.236e-3
1.482,   2.271e-3
1.483,   2.237e-3
1.484,   2.340e-3
1.485,   2.380e-3
1.486,   2.370e-3
1.487,   2.380e-3
1.488,   2.523e-3
1.489,   2.541e-3
1.490,   2.518e-3
1.491,   2.687e-3
1.492,   2.719e-3
1.493,   2.667e-3
1.494,   2.835e-3
1.495,   2.895e-3
1.496,   2.848e-3
1.497,   2.970e-3
1.498,   3.092e-3
1.499,   3.050e-3
1.500,   3.130e-3
1.501,   3.309e-3
1.502,   3.314e-3
1.503,   3.314e-3
1.504,   3.568e-3
1.505,   3.599e-3
1.506,   3.500e-3
1.507,   3.788e-3
1.508,   3.888e-3
1.509,   3.780e-3
1.510,   4.004e-3
1.511,   4.200e-3
1.512,   4.108e-3
1.513,   4.270e-3
1.514,   4.530e-3
1.515,   4.449e-3
1.516,   4.521e-3
1.517,   4.806e-3
1.518,   4.842e-3
1.519,   4.845e-3
1.520,   5.191e-3
1.521,   5.327e-3
1.522,   5.171e-3
1.523,   5.582e-3
1.524,   5.765e-3
1.525,   5.606e-3
1.526,   5.991e-3
1.527,   6.217e-3
1.528,   6.081e-3
1.529,   6.425e-3
1.530,   6.762e-3
1.531,   6.700e-3
1.532,   6.847e-3
1.533,   7.294e-3
1.534,   7.402e-3
1.535,   7.295e-3
1.536,   7.913e-3
1.537,   8.045e-3
1.538,   7.885e-3
1.539,   8.343e-3
1.540,   8.678e-3
1.541,   8.652e-3
1.542,   8.895e-3
1.543,   9.257e-3
1.544,   8.957e-3
1.545,   9.066e-3
1.546,   9.496e-3
1.547,   9.445e-3
1.548,   9.524e-3
1.549,   9.730e-3
1.550,   9.777e-3
1.551,   9.667e-3
1.552,   9.954e-3
1.553,   1.001e-2
1.554,   1.004e-2
1.555,   1.007e-2
1.556,   1.007e-2
1.557,   1.007e-2
1.558,   1.007e-2
1.559,   1.007e-2
1.560,   1.007e-2
1.561,   1.007e-2
1.562,   1.007e-2
1.563,   1.007e-2
1.564,   1.007e-2
1.565,   1.007e-2