File: Experimental Records, Raw Data, and Supplementary Notes and Figures/batch5/final500/B5_BEST_500_#1_High_Quality(#28)-188mV.txt
June 9, 2023   15:58:02
Linear Sweep Voltammetry
File: d:\current work\al_oer\electrochemical test data\batch 5\500\B5_BEST_500_#1_High_Quality(#28)-188mV.txt
Data Source:  Experiment
Instrument Model:  CHI660E
Header:
Note:

Init E (V) = 0.882

Final E (V) = 1.497

Scan Rate (V/s) = 0.010
Sample Interval (V) = 0.001
Quiet Time (sec) = 2
Sensitivity (A/V) = 0.001
Comp R (ohm) = 4.8

Results:

Channel 1:

Potential/V, Current/A
0.882,   2.539e-4
0.883,   3.338e-4
0.884,   3.272e-4
0.885,   3.113e-4
0.886,   3.249e-4
0.887,   3.370e-4
0.888,   3.168e-4
0.889,   3.075e-4
0.890,   3.296e-4
0.891,   3.259e-4
0.892,   3.065e-4
0.893,   3.150e-4
0.894,   3.274e-4
0.895,   3.128e-4
0.896,   2.989e-4
0.897,   3.151e-4
0.898,   3.238e-4
0.899,   3.042e-4
0.900,   3.048e-4
0.901,   3.222e-4
0.902,   3.122e-4
0.903,   2.924e-4
0.904,   3.029e-4
0.905,   3.170e-4
0.906,   3.023e-4
0.907,   2.944e-4
0.908,   3.116e-4
0.909,   3.131e-4
0.910,   2.872e-4
0.911,   2.908e-4
0.912,   3.123e-4
0.913,   2.995e-4
0.914,   2.870e-4
0.915,   3.023e-4
0.916,   3.074e-4
0.917,   2.879e-4
0.918,   2.842e-4
0.919,   3.037e-4
0.920,   2.968e-4
0.921,   2.819e-4
0.922,   2.935e-4
0.923,   3.058e-4
0.924,   2.857e-4
0.925,   2.765e-4
0.926,   2.932e-4
0.927,   2.951e-4
0.928,   2.795e-4
0.929,   2.868e-4
0.930,   3.039e-4
0.931,   2.866e-4
0.932,   2.728e-4
0.933,   2.841e-4
0.934,   2.910e-4
0.935,   2.794e-4
0.936,   2.786e-4
0.937,   2.947e-4
0.938,   2.899e-4
0.939,   2.695e-4
0.940,   2.747e-4
0.941,   2.919e-4
0.942,   2.791e-4
0.943,   2.715e-4
0.944,   2.885e-4
0.945,   2.900e-4
0.946,   2.680e-4
0.947,   2.692e-4
0.948,   2.890e-4
0.949,   2.800e-4
0.950,   2.660e-4
0.951,   2.798e-4
0.952,   2.878e-4
0.953,   2.699e-4
0.954,   2.629e-4
0.955,   2.824e-4
0.956,   2.804e-4
0.957,   2.652e-4
0.958,   2.741e-4
0.959,   2.868e-4
0.960,   2.710e-4
0.961,   2.585e-4
0.962,   2.755e-4
0.963,   2.815e-4
0.964,   2.648e-4
0.965,   2.659e-4
0.966,   2.821e-4
0.967,   2.733e-4
0.968,   2.575e-4
0.969,   2.676e-4
0.970,   2.824e-4
0.971,   2.659e-4
0.972,   2.609e-4
0.973,   2.797e-4
0.974,   2.756e-4
0.975,   2.561e-4
0.976,   2.611e-4
0.977,   2.793e-4
0.978,   2.686e-4
0.979,   2.577e-4
0.980,   2.712e-4
0.981,   2.788e-4
0.982,   2.576e-4
0.983,   2.538e-4
0.984,   2.758e-4
0.985,   2.703e-4
0.986,   2.560e-4
0.987,   2.646e-4
0.988,   2.761e-4
0.989,   2.608e-4
0.990,   2.482e-4
0.991,   2.706e-4
0.992,   2.718e-4
0.993,   2.558e-4
0.994,   2.606e-4
0.995,   2.763e-4
0.996,   2.618e-4
0.997,   2.501e-4
0.998,   2.635e-4
0.999,   2.713e-4
1.000,   2.568e-4
1.001,   2.606e-4
1.002,   2.730e-4
1.003,   2.660e-4
1.004,   2.499e-4
1.005,   2.589e-4
1.006,   2.716e-4
1.007,   2.592e-4
1.008,   2.577e-4
1.009,   2.662e-4
1.010,   2.723e-4
1.011,   2.525e-4
1.012,   2.513e-4
1.013,   2.695e-4
1.014,   2.633e-4
1.015,   2.539e-4
1.016,   2.615e-4
1.017,   2.717e-4
1.018,   2.581e-4
1.019,   2.485e-4
1.020,   2.647e-4
1.021,   2.682e-4
1.022,   2.535e-4
1.023,   2.581e-4
1.024,   2.727e-4
1.025,   2.602e-4
1.026,   2.465e-4
1.027,   2.631e-4
1.028,   2.714e-4
1.029,   2.541e-4
1.030,   2.529e-4
1.031,   2.705e-4
1.032,   2.638e-4
1.033,   2.485e-4
1.034,   2.568e-4
1.035,   2.721e-4
1.036,   2.589e-4
1.037,   2.530e-4
1.038,   2.690e-4
1.039,   2.687e-4
1.040,   2.491e-4
1.041,   2.542e-4
1.042,   2.701e-4
1.043,   2.633e-4
1.044,   2.496e-4
1.045,   2.652e-4
1.046,   2.716e-4
1.047,   2.547e-4
1.048,   2.496e-4
1.049,   2.709e-4
1.050,   2.668e-4
1.051,   2.530e-4
1.052,   2.599e-4
1.053,   2.733e-4
1.054,   2.597e-4
1.055,   2.483e-4
1.056,   2.697e-4
1.057,   2.725e-4
1.058,   2.562e-4
1.059,   2.547e-4
1.060,   2.784e-4
1.061,   2.627e-4
1.062,   2.479e-4
1.063,   2.636e-4
1.064,   2.757e-4
1.065,   2.595e-4
1.066,   2.544e-4
1.067,   2.708e-4
1.068,   2.714e-4
1.069,   2.520e-4
1.070,   2.584e-4
1.071,   2.785e-4
1.072,   2.667e-4
1.073,   2.533e-4
1.074,   2.679e-4
1.075,   2.741e-4
1.076,   2.568e-4
1.077,   2.557e-4
1.078,   2.775e-4
1.079,   2.713e-4
1.080,   2.572e-4
1.081,   2.655e-4
1.082,   2.813e-4
1.083,   2.645e-4
1.084,   2.514e-4
1.085,   2.782e-4
1.086,   2.727e-4
1.087,   2.611e-4
1.088,   2.634e-4
1.089,   2.824e-4
1.090,   2.722e-4
1.091,   2.546e-4
1.092,   2.726e-4
1.093,   2.862e-4
1.094,   2.661e-4
1.095,   2.612e-4
1.096,   2.776e-4
1.097,   2.773e-4
1.098,   2.596e-4
1.099,   2.685e-4
1.100,   2.906e-4
1.101,   2.694e-4
1.102,   2.608e-4
1.103,   2.806e-4
1.104,   2.854e-4
1.105,   2.648e-4
1.106,   2.640e-4
1.107,   2.874e-4
1.108,   2.814e-4
1.109,   2.664e-4
1.110,   2.767e-4
1.111,   2.908e-4
1.112,   2.722e-4
1.113,   2.630e-4
1.114,   2.900e-4
1.115,   2.877e-4
1.116,   2.694e-4
1.117,   2.745e-4
1.118,   2.935e-4
1.119,   2.801e-4
1.120,   2.632e-4
1.121,   2.865e-4
1.122,   2.942e-4
1.123,   2.755e-4
1.124,   2.744e-4
1.125,   2.979e-4
1.126,   2.887e-4
1.127,   2.676e-4
1.128,   2.817e-4
1.129,   3.013e-4
1.130,   2.834e-4
1.131,   2.769e-4
1.132,   2.920e-4
1.133,   3.012e-4
1.134,   2.744e-4
1.135,   2.762e-4
1.136,   3.032e-4
1.137,   2.922e-4
1.138,   2.778e-4
1.139,   2.877e-4
1.140,   3.066e-4
1.141,   2.856e-4
1.142,   2.742e-4
1.143,   3.029e-4
1.144,   2.995e-4
1.145,   2.814e-4
1.146,   2.904e-4
1.147,   3.109e-4
1.148,   2.954e-4
1.149,   2.769e-4
1.150,   3.005e-4
1.151,   3.060e-4
1.152,   2.900e-4
1.153,   2.884e-4
1.154,   3.113e-4
1.155,   3.057e-4
1.156,   2.821e-4
1.157,   2.973e-4
1.158,   3.120e-4
1.159,   2.976e-4
1.160,   2.910e-4
1.161,   3.120e-4
1.162,   3.185e-4
1.163,   2.882e-4
1.164,   2.894e-4
1.165,   3.179e-4
1.166,   3.017e-4
1.167,   2.951e-4
1.168,   3.092e-4
1.169,   3.277e-4
1.170,   3.012e-4
1.171,   2.896e-4
1.172,   3.182e-4
1.173,   3.157e-4
1.174,   2.973e-4
1.175,   3.086e-4
1.176,   3.359e-4
1.177,   3.125e-4
1.178,   2.932e-4
1.179,   3.158e-4
1.180,   3.226e-4
1.181,   3.066e-4
1.182,   3.087e-4
1.183,   3.362e-4
1.184,   3.285e-4
1.185,   2.971e-4
1.186,   3.154e-4
1.187,   3.298e-4
1.188,   3.087e-4
1.189,   3.154e-4
1.190,   3.353e-4
1.191,   3.437e-4
1.192,   3.080e-4
1.193,   3.120e-4
1.194,   3.341e-4
1.195,   3.206e-4
1.196,   3.186e-4
1.197,   3.325e-4
1.198,   3.496e-4
1.199,   3.191e-4
1.200,   3.132e-4
1.201,   3.380e-4
1.202,   3.362e-4
1.203,   3.174e-4
1.204,   3.381e-4
1.205,   3.617e-4
1.206,   3.330e-4
1.207,   3.136e-4
1.208,   3.412e-4
1.209,   3.466e-4
1.210,   3.237e-4
1.211,   3.403e-4
1.212,   3.675e-4
1.213,   3.518e-4
1.214,   3.194e-4
1.215,   3.377e-4
1.216,   3.548e-4
1.217,   3.384e-4
1.218,   3.337e-4
1.219,   3.706e-4
1.220,   3.700e-4
1.221,   3.302e-4
1.222,   3.364e-4
1.223,   3.619e-4
1.224,   3.541e-4
1.225,   3.397e-4
1.226,   3.667e-4
1.227,   3.831e-4
1.228,   3.421e-4
1.229,   3.396e-4
1.230,   3.654e-4
1.231,   3.624e-4
1.232,   3.495e-4
1.233,   3.678e-4
1.234,   3.942e-4
1.235,   3.628e-4
1.236,   3.425e-4
1.237,   3.714e-4
1.238,   3.691e-4
1.239,   3.585e-4
1.240,   3.683e-4
1.241,   4.041e-4
1.242,   3.847e-4
1.243,   3.482e-4
1.244,   3.685e-4
1.245,   3.888e-4
1.246,   3.588e-4
1.247,   3.741e-4
1.248,   4.103e-4
1.249,   3.995e-4
1.250,   3.627e-4
1.251,   3.666e-4
1.252,   3.917e-4
1.253,   3.749e-4
1.254,   3.785e-4
1.255,   4.174e-4
1.256,   4.209e-4
1.257,   3.755e-4
1.258,   3.691e-4
1.259,   3.949e-4
1.260,   3.873e-4
1.261,   3.860e-4
1.262,   4.142e-4
1.263,   4.353e-4
1.264,   3.957e-4
1.265,   3.715e-4
1.266,   4.005e-4
1.267,   4.041e-4
1.268,   3.934e-4
1.269,   4.126e-4
1.270,   4.480e-4
1.271,   4.192e-4
1.272,   3.794e-4
1.273,   4.000e-4
1.274,   4.139e-4
1.275,   4.045e-4
1.276,   4.126e-4
1.277,   4.574e-4
1.278,   4.393e-4
1.279,   3.936e-4
1.280,   4.000e-4
1.281,   4.242e-4
1.282,   4.171e-4
1.283,   4.154e-4
1.284,   4.592e-4
1.285,   4.639e-4
1.286,   4.133e-4
1.287,   3.978e-4
1.288,   4.347e-4
1.289,   4.295e-4
1.290,   4.177e-4
1.291,   4.596e-4
1.292,   4.840e-4
1.293,   4.306e-4
1.294,   4.070e-4
1.295,   4.348e-4
1.296,   4.454e-4
1.297,   4.269e-4
1.298,   4.584e-4
1.299,   4.979e-4
1.300,   4.501e-4
1.301,   4.210e-4
1.302,   4.396e-4
1.303,   4.552e-4
1.304,   4.350e-4
1.305,   4.616e-4
1.306,   5.115e-4
1.307,   4.813e-4
1.308,   4.262e-4
1.309,   4.308e-4
1.310,   4.665e-4
1.311,   4.372e-4
1.312,   4.788e-4
1.313,   5.181e-4
1.314,   5.141e-4
1.315,   4.459e-4
1.316,   4.280e-4
1.317,   4.692e-4
1.318,   4.584e-4
1.319,   4.789e-4
1.320,   5.168e-4
1.321,   5.329e-4
1.322,   4.715e-4
1.323,   4.457e-4
1.324,   4.712e-4
1.325,   4.829e-4
1.326,   4.788e-4
1.327,   5.203e-4
1.328,   5.578e-4
1.329,   5.071e-4
1.330,   4.500e-4
1.331,   4.740e-4
1.332,   4.979e-4
1.333,   4.962e-4
1.334,   5.227e-4
1.335,   5.730e-4
1.336,   5.404e-4
1.337,   4.752e-4
1.338,   4.790e-4
1.339,   5.173e-4
1.340,   5.075e-4
1.341,   5.382e-4
1.342,   5.968e-4
1.343,   5.676e-4
1.344,   5.058e-4
1.345,   4.944e-4
1.346,   5.344e-4
1.347,   5.379e-4
1.348,   5.409e-4
1.349,   6.128e-4
1.350,   6.191e-4
1.351,   5.390e-4
1.352,   5.044e-4
1.353,   5.500e-4
1.354,   5.795e-4
1.355,   5.601e-4
1.356,   6.256e-4
1.357,   6.595e-4
1.358,   5.963e-4
1.359,   5.465e-4
1.360,   5.731e-4
1.361,   5.997e-4
1.362,   6.115e-4
1.363,   6.540e-4
1.364,   7.254e-4
1.365,   6.563e-4
1.366,   5.864e-4
1.367,   5.985e-4
1.368,   6.466e-4
1.369,   6.401e-4
1.370,   7.082e-4
1.371,   7.877e-4
1.372,   7.549e-4
1.373,   6.480e-4
1.374,   6.267e-4
1.375,   6.900e-4
1.376,   7.007e-4
1.377,   7.562e-4
1.378,   8.567e-4
1.379,   8.418e-4
1.380,   7.550e-4
1.381,   6.963e-4
1.382,   7.404e-4
1.383,   7.865e-4
1.384,   8.161e-4
1.385,   9.485e-4
1.386,   9.776e-4
1.387,   8.686e-4
1.388,   7.765e-4
1.389,   8.240e-4
1.390,   8.772e-4
1.391,   9.273e-4
1.392,   1.043e-3
1.393,   1.149e-3
1.394,   1.027e-3
1.395,   9.159e-4
1.396,   9.186e-4
1.397,   9.930e-4
1.398,   1.066e-3
1.399,   1.185e-3
1.400,   1.336e-3
1.401,   1.265e-3
1.402,   1.108e-3
1.403,   1.081e-3
1.404,   1.148e-3
1.405,   1.241e-3
1.406,   1.403e-3
1.407,   1.636e-3
1.408,   1.595e-3
1.409,   1.366e-3
1.410,   1.320e-3
1.411,   1.420e-3
1.412,   1.542e-3
1.413,   1.699e-3
1.414,   1.949e-3
1.415,   2.077e-3
1.416,   1.897e-3
1.417,   1.730e-3
1.418,   1.786e-3
1.419,   1.954e-3
1.420,   2.212e-3
1.421,   2.582e-3
1.422,   2.806e-3
1.423,   2.607e-3
1.424,   2.408e-3
1.425,   2.450e-3
1.426,   2.690e-3
1.427,   2.911e-3
1.428,   3.302e-3
1.429,   3.651e-3
1.430,   3.582e-3
1.431,   3.440e-3
1.432,   3.541e-3
1.433,   3.790e-3
1.434,   4.001e-3
1.435,   4.378e-3
1.436,   4.859e-3
1.437,   5.009e-3
1.438,   4.944e-3
1.439,   5.113e-3
1.440,   5.411e-3
1.441,   5.623e-3
1.442,   5.968e-3
1.443,   6.534e-3
1.444,   6.908e-3
1.445,   7.009e-3
1.446,   7.240e-3
1.447,   7.630e-3
1.448,   7.742e-3
1.449,   7.932e-3
1.450,   8.418e-3
1.451,   8.843e-3
1.452,   8.962e-3
1.453,   9.145e-3
1.454,   9.396e-3
1.455,   9.340e-3
1.456,   9.415e-3
1.457,   9.675e-3
1.458,   9.830e-3
1.459,   9.913e-3
1.460,   9.971e-3
1.461,   1.004e-2
1.462,   1.007e-2
1.463,   1.007e-2
1.464,   1.007e-2
1.465,   1.007e-2
1.466,   1.007e-2
1.467,   1.007e-2
1.468,   1.007e-2
1.469,   1.007e-2
1.470,   1.007e-2
1.471,   1.007e-2
1.472,   1.007e-2
1.473,   1.007e-2
1.474,   1.007e-2
1.475,   1.007e-2
1.476,   1.007e-2
1.477,   1.007e-2
1.478,   1.007e-2
1.479,   1.007e-2
1.480,   1.007e-2
1.481,   1.007e-2
1.482,   1.007e-2
1.483,   1.007e-2
1.484,   1.007e-2
1.485,   1.007e-2
1.486,   1.007e-2
1.487,   1.007e-2
1.488,   1.007e-2
1.489,   1.007e-2
1.490,   1.007e-2
1.491,   1.007e-2
1.492,   1.007e-2
1.493,   1.007e-2
1.494,   1.007e-2
1.495,   1.007e-2
1.496,   1.007e-2
1.497,   1.007e-2