File: Experimental Records, Raw Data, and Supplementary Notes and Figures/batch5/final500/B5_BEST_500_#1_Full(#10)-216mV.txt
June 9, 2023   14:38:58
Linear Sweep Voltammetry
File: d:\current work\al_oer\electrochemical test data\batch 5\500\B5_BEST_500_#1_Full(#10)-216mV.txt
Data Source:  Experiment
Instrument Model:  CHI660E
Header:
Note:

Init E (V) = 0.897

Final E (V) = 1.497

Scan Rate (V/s) = 0.010
Sample Interval (V) = 0.001
Quiet Time (sec) = 2
Sensitivity (A/V) = 0.001
Comp R (ohm) = 4.3

Results:

Channel 1:

Potential/V, Current/A
0.897,   3.547e-4
0.898,   4.152e-4
0.899,   4.205e-4
0.900,   4.149e-4
0.901,   4.137e-4
0.902,   4.144e-4
0.903,   4.121e-4
0.904,   4.132e-4
0.905,   4.051e-4
0.906,   4.032e-4
0.907,   4.041e-4
0.908,   3.981e-4
0.909,   3.994e-4
0.910,   3.924e-4
0.911,   3.934e-4
0.912,   4.013e-4
0.913,   3.885e-4
0.914,   3.894e-4
0.915,   3.839e-4
0.916,   3.885e-4
0.917,   3.843e-4
0.918,   3.831e-4
0.919,   3.800e-4
0.920,   3.782e-4
0.921,   3.774e-4
0.922,   3.697e-4
0.923,   3.733e-4
0.924,   3.760e-4
0.925,   3.683e-4
0.926,   3.690e-4
0.927,   3.691e-4
0.928,   3.675e-4
0.929,   3.668e-4
0.930,   3.637e-4
0.931,   3.648e-4
0.932,   3.638e-4
0.933,   3.625e-4
0.934,   3.598e-4
0.935,   3.572e-4
0.936,   3.595e-4
0.937,   3.564e-4
0.938,   3.521e-4
0.939,   3.524e-4
0.940,   3.531e-4
0.941,   3.465e-4
0.942,   3.563e-4
0.943,   3.500e-4
0.944,   3.471e-4
0.945,   3.489e-4
0.946,   3.492e-4
0.947,   3.427e-4
0.948,   3.464e-4
0.949,   3.437e-4
0.950,   3.416e-4
0.951,   3.415e-4
0.952,   3.473e-4
0.953,   3.399e-4
0.954,   3.353e-4
0.955,   3.489e-4
0.956,   3.393e-4
0.957,   3.294e-4
0.958,   3.455e-4
0.959,   3.392e-4
0.960,   3.280e-4
0.961,   3.410e-4
0.962,   3.421e-4
0.963,   3.279e-4
0.964,   3.333e-4
0.965,   3.408e-4
0.966,   3.298e-4
0.967,   3.241e-4
0.968,   3.407e-4
0.969,   3.306e-4
0.970,   3.236e-4
0.971,   3.394e-4
0.972,   3.296e-4
0.973,   3.213e-4
0.974,   3.339e-4
0.975,   3.321e-4
0.976,   3.213e-4
0.977,   3.293e-4
0.978,   3.327e-4
0.979,   3.225e-4
0.980,   3.221e-4
0.981,   3.349e-4
0.982,   3.228e-4
0.983,   3.217e-4
0.984,   3.291e-4
0.985,   3.223e-4
0.986,   3.188e-4
0.987,   3.262e-4
0.988,   3.256e-4
0.989,   3.198e-4
0.990,   3.217e-4
0.991,   3.282e-4
0.992,   3.216e-4
0.993,   3.153e-4
0.994,   3.336e-4
0.995,   3.156e-4
0.996,   3.147e-4
0.997,   3.293e-4
0.998,   3.169e-4
0.999,   3.143e-4
1.000,   3.289e-4
1.001,   3.189e-4
1.002,   3.176e-4
1.003,   3.222e-4
1.004,   3.229e-4
1.005,   3.161e-4
1.006,   3.133e-4
1.007,   3.303e-4
1.008,   3.133e-4
1.009,   3.099e-4
1.010,   3.318e-4
1.011,   3.115e-4
1.012,   3.096e-4
1.013,   3.265e-4
1.014,   3.147e-4
1.015,   3.117e-4
1.016,   3.200e-4
1.017,   3.217e-4
1.018,   3.093e-4
1.019,   3.164e-4
1.020,   3.257e-4
1.021,   3.120e-4
1.022,   3.104e-4
1.023,   3.279e-4
1.024,   3.104e-4
1.025,   3.100e-4
1.026,   3.274e-4
1.027,   3.120e-4
1.028,   3.098e-4
1.029,   3.227e-4
1.030,   3.170e-4
1.031,   3.075e-4
1.032,   3.175e-4
1.033,   3.244e-4
1.034,   3.079e-4
1.035,   3.107e-4
1.036,   3.343e-4
1.037,   3.078e-4
1.038,   3.120e-4
1.039,   3.252e-4
1.040,   3.123e-4
1.041,   3.089e-4
1.042,   3.261e-4
1.043,   3.140e-4
1.044,   3.093e-4
1.045,   3.187e-4
1.046,   3.219e-4
1.047,   3.081e-4
1.048,   3.135e-4
1.049,   3.285e-4
1.050,   3.072e-4
1.051,   3.103e-4
1.052,   3.270e-4
1.053,   3.135e-4
1.054,   3.090e-4
1.055,   3.220e-4
1.056,   3.197e-4
1.057,   3.097e-4
1.058,   3.208e-4
1.059,   3.211e-4
1.060,   3.080e-4
1.061,   3.163e-4
1.062,   3.224e-4
1.063,   3.149e-4
1.064,   3.132e-4
1.065,   3.264e-4
1.066,   3.172e-4
1.067,   3.134e-4
1.068,   3.249e-4
1.069,   3.199e-4
1.070,   3.155e-4
1.071,   3.191e-4
1.072,   3.243e-4
1.073,   3.198e-4
1.074,   3.138e-4
1.075,   3.240e-4
1.076,   3.225e-4
1.077,   3.129e-4
1.078,   3.248e-4
1.079,   3.204e-4
1.080,   3.157e-4
1.081,   3.247e-4
1.082,   3.219e-4
1.083,   3.205e-4
1.084,   3.198e-4
1.085,   3.255e-4
1.086,   3.200e-4
1.087,   3.187e-4
1.088,   3.255e-4
1.089,   3.221e-4
1.090,   3.150e-4
1.091,   3.302e-4
1.092,   3.244e-4
1.093,   3.180e-4
1.094,   3.283e-4
1.095,   3.262e-4
1.096,   3.236e-4
1.097,   3.241e-4
1.098,   3.302e-4
1.099,   3.238e-4
1.100,   3.220e-4
1.101,   3.283e-4
1.102,   3.264e-4
1.103,   3.227e-4
1.104,   3.348e-4
1.105,   3.252e-4
1.106,   3.206e-4
1.107,   3.345e-4
1.108,   3.273e-4
1.109,   3.257e-4
1.110,   3.307e-4
1.111,   3.299e-4
1.112,   3.309e-4
1.113,   3.280e-4
1.114,   3.326e-4
1.115,   3.307e-4
1.116,   3.274e-4
1.117,   3.391e-4
1.118,   3.320e-4
1.119,   3.261e-4
1.120,   3.371e-4
1.121,   3.327e-4
1.122,   3.329e-4
1.123,   3.394e-4
1.124,   3.336e-4
1.125,   3.328e-4
1.126,   3.337e-4
1.127,   3.395e-4
1.128,   3.360e-4
1.129,   3.340e-4
1.130,   3.434e-4
1.131,   3.359e-4
1.132,   3.351e-4
1.133,   3.413e-4
1.134,   3.381e-4
1.135,   3.396e-4
1.136,   3.449e-4
1.137,   3.354e-4
1.138,   3.425e-4
1.139,   3.394e-4
1.140,   3.417e-4
1.141,   3.444e-4
1.142,   3.389e-4
1.143,   3.452e-4
1.144,   3.434e-4
1.145,   3.434e-4
1.146,   3.503e-4
1.147,   3.390e-4
1.148,   3.464e-4
1.149,   3.509e-4
1.150,   3.416e-4
1.151,   3.484e-4
1.152,   3.500e-4
1.153,   3.422e-4
1.154,   3.530e-4
1.155,   3.448e-4
1.156,   3.555e-4
1.157,   3.504e-4
1.158,   3.423e-4
1.159,   3.562e-4
1.160,   3.490e-4
1.161,   3.518e-4
1.162,   3.524e-4
1.163,   3.514e-4
1.164,   3.555e-4
1.165,   3.524e-4
1.166,   3.549e-4
1.167,   3.571e-4
1.168,   3.518e-4
1.169,   3.554e-4
1.170,   3.609e-4
1.171,   3.521e-4
1.172,   3.631e-4
1.173,   3.531e-4
1.174,   3.645e-4
1.175,   3.581e-4
1.176,   3.571e-4
1.177,   3.663e-4
1.178,   3.556e-4
1.179,   3.524e-4
1.180,   3.701e-4
1.181,   3.573e-4
1.182,   3.618e-4
1.183,   3.698e-4
1.184,   3.625e-4
1.185,   3.564e-4
1.186,   3.691e-4
1.187,   3.676e-4
1.188,   3.603e-4
1.189,   3.640e-4
1.190,   3.753e-4
1.191,   3.605e-4
1.192,   3.635e-4
1.193,   3.792e-4
1.194,   3.629e-4
1.195,   3.622e-4
1.196,   3.828e-4
1.197,   3.654e-4
1.198,   3.633e-4
1.199,   3.773e-4
1.200,   3.765e-4
1.201,   3.667e-4
1.202,   3.676e-4
1.203,   3.852e-4
1.204,   3.681e-4
1.205,   3.676e-4
1.206,   3.850e-4
1.207,   3.746e-4
1.208,   3.711e-4
1.209,   3.866e-4
1.210,   3.688e-4
1.211,   3.741e-4
1.212,   3.807e-4
1.213,   3.858e-4
1.214,   3.725e-4
1.215,   3.762e-4
1.216,   3.881e-4
1.217,   3.794e-4
1.218,   3.750e-4
1.219,   3.877e-4
1.220,   3.839e-4
1.221,   3.765e-4
1.222,   3.898e-4
1.223,   3.893e-4
1.224,   3.763e-4
1.225,   3.862e-4
1.226,   3.936e-4
1.227,   3.860e-4
1.228,   3.813e-4
1.229,   3.930e-4
1.230,   3.901e-4
1.231,   3.792e-4
1.232,   4.001e-4
1.233,   3.927e-4
1.234,   3.791e-4
1.235,   3.908e-4
1.236,   3.908e-4
1.237,   3.980e-4
1.238,   3.867e-4
1.239,   3.879e-4
1.240,   4.086e-4
1.241,   3.830e-4
1.242,   3.909e-4
1.243,   4.115e-4
1.244,   3.930e-4
1.245,   3.890e-4
1.246,   4.066e-4
1.247,   4.033e-4
1.248,   3.899e-4
1.249,   4.069e-4
1.250,   4.065e-4
1.251,   3.913e-4
1.252,   4.019e-4
1.253,   4.132e-4
1.254,   3.933e-4
1.255,   3.955e-4
1.256,   4.137e-4
1.257,   4.004e-4
1.258,   3.984e-4
1.259,   4.135e-4
1.260,   4.091e-4
1.261,   3.982e-4
1.262,   4.188e-4
1.263,   4.099e-4
1.264,   3.983e-4
1.265,   4.054e-4
1.266,   4.264e-4
1.267,   4.016e-4
1.268,   4.036e-4
1.269,   4.330e-4
1.270,   4.066e-4
1.271,   4.098e-4
1.272,   4.304e-4
1.273,   4.164e-4
1.274,   4.066e-4
1.275,   4.247e-4
1.276,   4.277e-4
1.277,   4.112e-4
1.278,   4.146e-4
1.279,   4.403e-4
1.280,   4.094e-4
1.281,   4.171e-4
1.282,   4.403e-4
1.283,   4.187e-4
1.284,   4.245e-4
1.285,   4.356e-4
1.286,   4.258e-4
1.287,   4.263e-4
1.288,   4.320e-4
1.289,   4.302e-4
1.290,   4.290e-4
1.291,   4.311e-4
1.292,   4.467e-4
1.293,   4.278e-4
1.294,   4.297e-4
1.295,   4.545e-4
1.296,   4.304e-4
1.297,   4.286e-4
1.298,   4.501e-4
1.299,   4.346e-4
1.300,   4.360e-4
1.301,   4.530e-4
1.302,   4.510e-4
1.303,   4.321e-4
1.304,   4.527e-4
1.305,   4.580e-4
1.306,   4.437e-4
1.307,   4.443e-4
1.308,   4.678e-4
1.309,   4.438e-4
1.310,   4.449e-4
1.311,   4.740e-4
1.312,   4.458e-4
1.313,   4.476e-4
1.314,   4.641e-4
1.315,   4.597e-4
1.316,   4.555e-4
1.317,   4.717e-4
1.318,   4.654e-4
1.319,   4.540e-4
1.320,   4.657e-4
1.321,   4.775e-4
1.322,   4.617e-4
1.323,   4.630e-4
1.324,   4.811e-4
1.325,   4.706e-4
1.326,   4.669e-4
1.327,   4.783e-4
1.328,   4.839e-4
1.329,   4.755e-4
1.330,   4.805e-4
1.331,   4.775e-4
1.332,   4.779e-4
1.333,   4.799e-4
1.334,   4.923e-4
1.335,   4.835e-4
1.336,   4.772e-4
1.337,   4.977e-4
1.338,   4.867e-4
1.339,   4.784e-4
1.340,   4.983e-4
1.341,   4.977e-4
1.342,   4.877e-4
1.343,   4.913e-4
1.344,   5.095e-4
1.345,   4.996e-4
1.346,   4.839e-4
1.347,   5.145e-4
1.348,   5.005e-4
1.349,   4.876e-4
1.350,   5.219e-4
1.351,   5.056e-4
1.352,   4.985e-4
1.353,   5.180e-4
1.354,   5.066e-4
1.355,   5.001e-4
1.356,   5.191e-4
1.357,   5.225e-4
1.358,   5.082e-4
1.359,   5.096e-4
1.360,   5.338e-4
1.361,   5.123e-4
1.362,   5.077e-4
1.363,   5.422e-4
1.364,   5.188e-4
1.365,   5.076e-4
1.366,   5.480e-4
1.367,   5.326e-4
1.368,   5.133e-4
1.369,   5.422e-4
1.370,   5.408e-4
1.371,   5.238e-4
1.372,   5.374e-4
1.373,   5.544e-4
1.374,   5.302e-4
1.375,   5.336e-4
1.376,   5.664e-4
1.377,   5.364e-4
1.378,   5.331e-4
1.379,   5.750e-4
1.380,   5.532e-4
1.381,   5.387e-4
1.382,   5.672e-4
1.383,   5.652e-4
1.384,   5.561e-4
1.385,   5.611e-4
1.386,   5.774e-4
1.387,   5.718e-4
1.388,   5.690e-4
1.389,   5.892e-4
1.390,   5.819e-4
1.391,   5.742e-4
1.392,   5.920e-4
1.393,   5.898e-4
1.394,   5.926e-4
1.395,   6.060e-4
1.396,   6.025e-4
1.397,   6.138e-4
1.398,   6.143e-4
1.399,   6.194e-4
1.400,   6.309e-4
1.401,   6.188e-4
1.402,   6.453e-4
1.403,   6.508e-4
1.404,   6.343e-4
1.405,   6.599e-4
1.406,   6.647e-4
1.407,   6.498e-4
1.408,   6.869e-4
1.409,   6.936e-4
1.410,   6.906e-4
1.411,   7.066e-4
1.412,   7.168e-4
1.413,   7.226e-4
1.414,   7.299e-4
1.415,   7.523e-4
1.416,   7.505e-4
1.417,   7.494e-4
1.418,   8.086e-4
1.419,   7.992e-4
1.420,   7.958e-4
1.421,   8.319e-4
1.422,   8.509e-4
1.423,   8.492e-4
1.424,   8.776e-4
1.425,   9.168e-4
1.426,   9.291e-4
1.427,   9.168e-4
1.428,   9.914e-4
1.429,   1.014e-3
1.430,   9.931e-4
1.431,   1.070e-3
1.432,   1.097e-3
1.433,   1.108e-3
1.434,   1.151e-3
1.435,   1.221e-3
1.436,   1.231e-3
1.437,   1.271e-3
1.438,   1.370e-3
1.439,   1.395e-3
1.440,   1.411e-3
1.441,   1.539e-3
1.442,   1.625e-3
1.443,   1.606e-3
1.444,   1.746e-3
1.445,   1.852e-3
1.446,   1.829e-3
1.447,   1.983e-3
1.448,   2.080e-3
1.449,   2.105e-3
1.450,   2.229e-3
1.451,   2.387e-3
1.452,   2.469e-3
1.453,   2.507e-3
1.454,   2.732e-3
1.455,   2.890e-3
1.456,   2.890e-3
1.457,   3.156e-3
1.458,   3.350e-3
1.459,   3.297e-3
1.460,   3.622e-3
1.461,   3.872e-3
1.462,   3.856e-3
1.463,   4.056e-3
1.464,   4.392e-3
1.465,   4.425e-3
1.466,   4.522e-3
1.467,   4.955e-3
1.468,   5.151e-3
1.469,   5.099e-3
1.470,   5.572e-3
1.471,   5.953e-3
1.472,   5.810e-3
1.473,   6.304e-3
1.474,   6.778e-3
1.475,   6.655e-3
1.476,   7.095e-3
1.477,   7.616e-3
1.478,   7.782e-3
1.479,   7.850e-3
1.480,   8.570e-3
1.481,   8.848e-3
1.482,   8.925e-3
1.483,   9.531e-3
1.484,   9.702e-3
1.485,   9.635e-3
1.486,   9.944e-3
1.487,   9.999e-3
1.488,   1.002e-2
1.489,   1.007e-2
1.490,   1.007e-2
1.491,   1.007e-2
1.492,   1.007e-2
1.493,   1.007e-2
1.494,   1.007e-2
1.495,   1.007e-2
1.496,   1.007e-2
1.497,   1.007e-2