File: Experimental Records, Raw Data, and Supplementary Notes and Figures/batch5/final500/B5_BEST_500_#1_High_Quality(#32)-168mV.txt
June 9, 2023   16:51:46
Linear Sweep Voltammetry
File: d:\current work\al_oer\electrochemical test data\batch 5\500\B5_BEST_500_#1_High_Quality(#32)-168mV.txt
Data Source:  Experiment
Instrument Model:  CHI660E
Header:
Note:

Init E (V) = 0.907

Final E (V) = 1.478

Scan Rate (V/s) = 0.010
Sample Interval (V) = 0.001
Quiet Time (sec) = 2
Sensitivity (A/V) = 0.001
Comp R (ohm) = 4.0

Results:

Channel 1:

Potential/V, Current/A
0.907,   9.099e-4
0.908,   1.032e-3
0.909,   1.096e-3
0.910,   1.045e-3
0.911,   1.003e-3
0.912,   9.914e-4
0.913,   1.061e-3
0.914,   9.880e-4
0.915,   9.614e-4
0.916,   9.578e-4
0.917,   1.009e-3
0.918,   9.454e-4
0.919,   9.205e-4
0.920,   9.188e-4
0.921,   9.686e-4
0.922,   9.094e-4
0.923,   8.837e-4
0.924,   8.888e-4
0.925,   9.367e-4
0.926,   8.739e-4
0.927,   8.551e-4
0.928,   8.642e-4
0.929,   9.086e-4
0.930,   8.447e-4
0.931,   8.295e-4
0.932,   8.434e-4
0.933,   8.829e-4
0.934,   8.197e-4
0.935,   8.033e-4
0.936,   8.281e-4
0.937,   8.643e-4
0.938,   7.968e-4
0.939,   7.874e-4
0.940,   8.132e-4
0.941,   8.389e-4
0.942,   7.816e-4
0.943,   7.698e-4
0.944,   7.989e-4
0.945,   8.169e-4
0.946,   7.664e-4
0.947,   7.609e-4
0.948,   7.865e-4
0.949,   7.986e-4
0.950,   7.533e-4
0.951,   7.407e-4
0.952,   7.793e-4
0.953,   7.888e-4
0.954,   7.384e-4
0.955,   7.331e-4
0.956,   7.700e-4
0.957,   7.700e-4
0.958,   7.285e-4
0.959,   7.214e-4
0.960,   7.635e-4
0.961,   7.609e-4
0.962,   7.169e-4
0.963,   7.178e-4
0.964,   7.416e-4
0.965,   7.399e-4
0.966,   7.164e-4
0.967,   7.077e-4
0.968,   7.411e-4
0.969,   7.345e-4
0.970,   7.069e-4
0.971,   6.972e-4
0.972,   7.344e-4
0.973,   7.310e-4
0.974,   6.938e-4
0.975,   6.911e-4
0.976,   7.348e-4
0.977,   7.251e-4
0.978,   6.887e-4
0.979,   6.868e-4
0.980,   7.359e-4
0.981,   7.045e-4
0.982,   6.822e-4
0.983,   6.770e-4
0.984,   7.326e-4
0.985,   6.974e-4
0.986,   6.750e-4
0.987,   6.777e-4
0.988,   7.268e-4
0.989,   6.849e-4
0.990,   6.682e-4
0.991,   6.718e-4
0.992,   7.301e-4
0.993,   6.780e-4
0.994,   6.653e-4
0.995,   6.735e-4
0.996,   7.179e-4
0.997,   6.698e-4
0.998,   6.610e-4
0.999,   6.697e-4
1.000,   7.232e-4
1.001,   6.665e-4
1.002,   6.545e-4
1.003,   6.756e-4
1.004,   7.200e-4
1.005,   6.681e-4
1.006,   6.455e-4
1.007,   6.631e-4
1.008,   7.123e-4
1.009,   6.632e-4
1.010,   6.498e-4
1.011,   6.622e-4
1.012,   7.113e-4
1.013,   6.558e-4
1.014,   6.407e-4
1.015,   6.659e-4
1.016,   7.025e-4
1.017,   6.492e-4
1.018,   6.420e-4
1.019,   6.665e-4
1.020,   7.056e-4
1.021,   6.406e-4
1.022,   6.335e-4
1.023,   6.691e-4
1.024,   7.036e-4
1.025,   6.426e-4
1.026,   6.367e-4
1.027,   6.684e-4
1.028,   6.898e-4
1.029,   6.406e-4
1.030,   6.367e-4
1.031,   6.788e-4
1.032,   6.843e-4
1.033,   6.447e-4
1.034,   6.440e-4
1.035,   6.734e-4
1.036,   6.788e-4
1.037,   6.410e-4
1.038,   6.382e-4
1.039,   6.757e-4
1.040,   6.761e-4
1.041,   6.385e-4
1.042,   6.290e-4
1.043,   6.801e-4
1.044,   6.777e-4
1.045,   6.317e-4
1.046,   6.318e-4
1.047,   6.869e-4
1.048,   6.713e-4
1.049,   6.341e-4
1.050,   6.328e-4
1.051,   6.958e-4
1.052,   6.659e-4
1.053,   6.321e-4
1.054,   6.441e-4
1.055,   6.871e-4
1.056,   6.643e-4
1.057,   6.371e-4
1.058,   6.357e-4
1.059,   6.864e-4
1.060,   6.605e-4
1.061,   6.320e-4
1.062,   6.413e-4
1.063,   6.925e-4
1.064,   6.610e-4
1.065,   6.374e-4
1.066,   6.428e-4
1.067,   7.028e-4
1.068,   6.556e-4
1.069,   6.281e-4
1.070,   6.448e-4
1.071,   7.025e-4
1.072,   6.627e-4
1.073,   6.344e-4
1.074,   6.468e-4
1.075,   7.011e-4
1.076,   6.555e-4
1.077,   6.277e-4
1.078,   6.542e-4
1.079,   7.133e-4
1.080,   6.511e-4
1.081,   6.305e-4
1.082,   6.585e-4
1.083,   7.276e-4
1.084,   6.487e-4
1.085,   6.293e-4
1.086,   6.639e-4
1.087,   7.179e-4
1.088,   6.486e-4
1.089,   6.357e-4
1.090,   6.640e-4
1.091,   7.173e-4
1.092,   6.510e-4
1.093,   6.363e-4
1.094,   6.736e-4
1.095,   7.173e-4
1.096,   6.512e-4
1.097,   6.404e-4
1.098,   6.796e-4
1.099,   7.150e-4
1.100,   6.528e-4
1.101,   6.419e-4
1.102,   6.878e-4
1.103,   7.179e-4
1.104,   6.518e-4
1.105,   6.461e-4
1.106,   6.956e-4
1.107,   7.171e-4
1.108,   6.549e-4
1.109,   6.482e-4
1.110,   7.011e-4
1.111,   7.168e-4
1.112,   6.597e-4
1.113,   6.538e-4
1.114,   7.052e-4
1.115,   7.158e-4
1.116,   6.634e-4
1.117,   6.583e-4
1.118,   7.122e-4
1.119,   7.197e-4
1.120,   6.552e-4
1.121,   6.694e-4
1.122,   7.129e-4
1.123,   7.203e-4
1.124,   6.722e-4
1.125,   6.552e-4
1.126,   7.336e-4
1.127,   7.222e-4
1.128,   6.703e-4
1.129,   6.764e-4
1.130,   7.295e-4
1.131,   7.202e-4
1.132,   6.800e-4
1.133,   6.802e-4
1.134,   7.375e-4
1.135,   7.204e-4
1.136,   6.852e-4
1.137,   6.852e-4
1.138,   7.439e-4
1.139,   7.258e-4
1.140,   6.964e-4
1.141,   6.865e-4
1.142,   7.528e-4
1.143,   7.251e-4
1.144,   6.910e-4
1.145,   6.898e-4
1.146,   7.687e-4
1.147,   7.253e-4
1.148,   6.948e-4
1.149,   7.032e-4
1.150,   7.750e-4
1.151,   7.264e-4
1.152,   7.025e-4
1.153,   7.128e-4
1.154,   7.826e-4
1.155,   7.305e-4
1.156,   7.056e-4
1.157,   7.212e-4
1.158,   7.890e-4
1.159,   7.371e-4
1.160,   7.196e-4
1.161,   7.218e-4
1.162,   7.833e-4
1.163,   7.402e-4
1.164,   7.230e-4
1.165,   7.462e-4
1.166,   7.971e-4
1.167,   7.351e-4
1.168,   7.329e-4
1.169,   7.412e-4
1.170,   7.994e-4
1.171,   7.488e-4
1.172,   7.341e-4
1.173,   7.563e-4
1.174,   8.040e-4
1.175,   7.455e-4
1.176,   7.467e-4
1.177,   7.715e-4
1.178,   8.082e-4
1.179,   7.630e-4
1.180,   7.514e-4
1.181,   7.768e-4
1.182,   8.134e-4
1.183,   7.602e-4
1.184,   7.476e-4
1.185,   8.054e-4
1.186,   8.175e-4
1.187,   7.561e-4
1.188,   7.614e-4
1.189,   8.022e-4
1.190,   8.233e-4
1.191,   7.722e-4
1.192,   7.703e-4
1.193,   8.153e-4
1.194,   8.298e-4
1.195,   7.754e-4
1.196,   7.712e-4
1.197,   8.361e-4
1.198,   8.421e-4
1.199,   7.815e-4
1.200,   7.755e-4
1.201,   8.392e-4
1.202,   8.536e-4
1.203,   7.963e-4
1.204,   7.713e-4
1.205,   8.420e-4
1.206,   8.671e-4
1.207,   8.023e-4
1.208,   7.767e-4
1.209,   8.548e-4
1.210,   8.704e-4
1.211,   8.143e-4
1.212,   7.881e-4
1.213,   8.689e-4
1.214,   8.766e-4
1.215,   8.240e-4
1.216,   7.970e-4
1.217,   8.806e-4
1.218,   8.794e-4
1.219,   8.276e-4
1.220,   8.041e-4
1.221,   8.880e-4
1.222,   8.915e-4
1.223,   8.412e-4
1.224,   8.116e-4
1.225,   8.936e-4
1.226,   8.908e-4
1.227,   8.454e-4
1.228,   8.268e-4
1.229,   9.177e-4
1.230,   9.099e-4
1.231,   8.404e-4
1.232,   8.276e-4
1.233,   9.362e-4
1.234,   8.990e-4
1.235,   8.489e-4
1.236,   8.611e-4
1.237,   9.493e-4
1.238,   9.125e-4
1.239,   8.615e-4
1.240,   8.647e-4
1.241,   9.586e-4
1.242,   9.239e-4
1.243,   8.621e-4
1.244,   8.729e-4
1.245,   9.653e-4
1.246,   9.198e-4
1.247,   8.706e-4
1.248,   8.996e-4
1.249,   9.851e-4
1.250,   9.045e-4
1.251,   8.823e-4
1.252,   9.259e-4
1.253,   9.993e-4
1.254,   9.198e-4
1.255,   8.837e-4
1.256,   9.336e-4
1.257,   1.017e-3
1.258,   9.268e-4
1.259,   8.915e-4
1.260,   9.559e-4
1.261,   1.044e-3
1.262,   9.774e-4
1.263,   8.992e-4
1.264,   9.203e-4
1.265,   1.029e-3
1.266,   9.880e-4
1.267,   8.959e-4
1.268,   9.671e-4
1.269,   1.046e-3
1.270,   9.938e-4
1.271,   9.167e-4
1.272,   9.671e-4
1.273,   1.038e-3
1.274,   1.020e-3
1.275,   8.981e-4
1.276,   1.010e-3
1.277,   1.056e-3
1.278,   9.776e-4
1.279,   9.457e-4
1.280,   1.039e-3
1.281,   1.060e-3
1.282,   9.840e-4
1.283,   9.612e-4
1.284,   1.056e-3
1.285,   1.068e-3
1.286,   9.959e-4
1.287,   9.741e-4
1.288,   1.068e-3
1.289,   1.071e-3
1.290,   1.015e-3
1.291,   9.881e-4
1.292,   1.077e-3
1.293,   1.086e-3
1.294,   1.030e-3
1.295,   9.874e-4
1.296,   1.102e-3
1.297,   1.093e-3
1.298,   1.035e-3
1.299,   1.030e-3
1.300,   1.110e-3
1.301,   1.078e-3
1.302,   1.053e-3
1.303,   1.032e-3
1.304,   1.136e-3
1.305,   1.098e-3
1.306,   1.058e-3
1.307,   1.053e-3
1.308,   1.159e-3
1.309,   1.157e-3
1.310,   1.125e-3
1.311,   1.024e-3
1.312,   1.072e-3
1.313,   1.174e-3
1.314,   1.142e-3
1.315,   1.042e-3
1.316,   1.094e-3
1.317,   1.196e-3
1.318,   1.156e-3
1.319,   1.040e-3
1.320,   1.127e-3
1.321,   1.188e-3
1.322,   1.144e-3
1.323,   1.087e-3
1.324,   1.163e-3
1.325,   1.199e-3
1.326,   1.150e-3
1.327,   1.096e-3
1.328,   1.198e-3
1.329,   1.232e-3
1.330,   1.140e-3
1.331,   1.114e-3
1.332,   1.208e-3
1.333,   1.247e-3
1.334,   1.158e-3
1.335,   1.127e-3
1.336,   1.230e-3
1.337,   1.261e-3
1.338,   1.167e-3
1.339,   1.148e-3
1.340,   1.257e-3
1.341,   1.290e-3
1.342,   1.186e-3
1.343,   1.152e-3
1.344,   1.273e-3
1.345,   1.282e-3
1.346,   1.180e-3
1.347,   1.222e-3
1.348,   1.306e-3
1.349,   1.275e-3
1.350,   1.182e-3
1.351,   1.264e-3
1.352,   1.321e-3
1.353,   1.240e-3
1.354,   1.210e-3
1.355,   1.328e-3
1.356,   1.372e-3
1.357,   1.309e-3
1.358,   1.234e-3
1.359,   1.296e-3
1.360,   1.394e-3
1.361,   1.344e-3
1.362,   1.257e-3
1.363,   1.335e-3
1.364,   1.428e-3
1.365,   1.362e-3
1.366,   1.280e-3
1.367,   1.374e-3
1.368,   1.458e-3
1.369,   1.375e-3
1.370,   1.315e-3
1.371,   1.442e-3
1.372,   1.479e-3
1.373,   1.355e-3
1.374,   1.382e-3
1.375,   1.529e-3
1.376,   1.540e-3
1.377,   1.436e-3
1.378,   1.391e-3
1.379,   1.548e-3
1.380,   1.585e-3
1.381,   1.495e-3
1.382,   1.441e-3
1.383,   1.582e-3
1.384,   1.632e-3
1.385,   1.553e-3
1.386,   1.506e-3
1.387,   1.659e-3
1.388,   1.679e-3
1.389,   1.597e-3
1.390,   1.597e-3
1.391,   1.743e-3
1.392,   1.731e-3
1.393,   1.705e-3
1.394,   1.695e-3
1.395,   1.847e-3
1.396,   1.802e-3
1.397,   1.774e-3
1.398,   1.813e-3
1.399,   1.981e-3
1.400,   1.922e-3
1.401,   1.864e-3
1.402,   1.933e-3
1.403,   2.107e-3
1.404,   2.058e-3
1.405,   2.013e-3
1.406,   2.068e-3
1.407,   2.239e-3
1.408,   2.189e-3
1.409,   2.164e-3
1.410,   2.258e-3
1.411,   2.442e-3
1.412,   2.356e-3
1.413,   2.334e-3
1.414,   2.483e-3
1.415,   2.634e-3
1.416,   2.566e-3
1.417,   2.592e-3
1.418,   2.711e-3
1.419,   2.878e-3
1.420,   2.827e-3
1.421,   2.850e-3
1.422,   3.015e-3
1.423,   3.178e-3
1.424,   3.172e-3
1.425,   3.167e-3
1.426,   3.351e-3
1.427,   3.571e-3
1.428,   3.538e-3
1.429,   3.558e-3
1.430,   3.827e-3
1.431,   4.078e-3
1.432,   4.111e-3
1.433,   4.029e-3
1.434,   4.305e-3
1.435,   4.659e-3
1.436,   4.750e-3
1.437,   4.652e-3
1.438,   4.996e-3
1.439,   5.486e-3
1.440,   5.590e-3
1.441,   5.451e-3
1.442,   5.858e-3
1.443,   6.487e-3
1.444,   6.476e-3
1.445,   6.341e-3
1.446,   7.006e-3
1.447,   7.364e-3
1.448,   7.607e-3
1.449,   7.734e-3
1.450,   8.336e-3
1.451,   8.663e-3
1.452,   9.134e-3
1.453,   9.117e-3
1.454,   9.634e-3
1.455,   9.856e-3
1.456,   9.958e-3
1.457,   1.000e-2
1.458,   1.007e-2
1.459,   1.007e-2
1.460,   1.007e-2
1.461,   1.007e-2
1.462,   1.007e-2
1.463,   1.007e-2
1.464,   1.007e-2
1.465,   1.007e-2
1.466,   1.007e-2
1.467,   1.007e-2
1.468,   1.007e-2
1.469,   1.007e-2
1.470,   1.007e-2
1.471,   1.007e-2
1.472,   1.007e-2
1.473,   1.007e-2
1.474,   1.007e-2
1.475,   1.007e-2
1.476,   1.007e-2
1.477,   1.007e-2
1.478,   1.007e-2