File: Experimental Records, Raw Data, and Supplementary Notes and Figures/batch5/final500/B5_BEST_500_#1_High_Quality(#25)-196mV.txt
June 9, 2023   11:44:07
Linear Sweep Voltammetry
File: d:\current work\al_oer\electrochemical test data\batch 5\500\B5_BEST_500_#1_High_Quality(#25)-196mV.txt
Data Source:  Experiment
Instrument Model:  CHI660E
Header:
Note:

Init E (V) = 0.893

Final E (V) = 1.494

Scan Rate (V/s) = 0.010
Sample Interval (V) = 0.001
Quiet Time (sec) = 2
Sensitivity (A/V) = 0.001
Comp R (ohm) = 5.2

Results:

Channel 1:

Potential/V, Current/A
0.893,   2.366e-4
0.894,   2.714e-4
0.895,   2.768e-4
0.896,   2.766e-4
0.897,   2.749e-4
0.898,   2.799e-4
0.899,   2.811e-4
0.900,   2.769e-4
0.901,   2.754e-4
0.902,   2.753e-4
0.903,   2.745e-4
0.904,   2.741e-4
0.905,   2.778e-4
0.906,   2.730e-4
0.907,   2.715e-4
0.908,   2.705e-4
0.909,   2.702e-4
0.910,   2.677e-4
0.911,   2.720e-4
0.912,   2.690e-4
0.913,   2.687e-4
0.914,   2.659e-4
0.915,   2.648e-4
0.916,   2.639e-4
0.917,   2.680e-4
0.918,   2.658e-4
0.919,   2.652e-4
0.920,   2.623e-4
0.921,   2.605e-4
0.922,   2.605e-4
0.923,   2.607e-4
0.924,   2.606e-4
0.925,   2.616e-4
0.926,   2.584e-4
0.927,   2.566e-4
0.928,   2.553e-4
0.929,   2.570e-4
0.930,   2.594e-4
0.931,   2.586e-4
0.932,   2.564e-4
0.933,   2.527e-4
0.934,   2.528e-4
0.935,   2.535e-4
0.936,   2.560e-4
0.937,   2.556e-4
0.938,   2.514e-4
0.939,   2.504e-4
0.940,   2.502e-4
0.941,   2.497e-4
0.942,   2.539e-4
0.943,   2.516e-4
0.944,   2.508e-4
0.945,   2.476e-4
0.946,   2.478e-4
0.947,   2.477e-4
0.948,   2.516e-4
0.949,   2.497e-4
0.950,   2.482e-4
0.951,   2.449e-4
0.952,   2.463e-4
0.953,   2.442e-4
0.954,   2.483e-4
0.955,   2.466e-4
0.956,   2.472e-4
0.957,   2.434e-4
0.958,   2.434e-4
0.959,   2.422e-4
0.960,   2.474e-4
0.961,   2.454e-4
0.962,   2.449e-4
0.963,   2.416e-4
0.964,   2.410e-4
0.965,   2.407e-4
0.966,   2.428e-4
0.967,   2.428e-4
0.968,   2.424e-4
0.969,   2.398e-4
0.970,   2.387e-4
0.971,   2.389e-4
0.972,   2.388e-4
0.973,   2.416e-4
0.974,   2.413e-4
0.975,   2.396e-4
0.976,   2.376e-4
0.977,   2.382e-4
0.978,   2.367e-4
0.979,   2.430e-4
0.980,   2.391e-4
0.981,   2.386e-4
0.982,   2.357e-4
0.983,   2.370e-4
0.984,   2.358e-4
0.985,   2.392e-4
0.986,   2.372e-4
0.987,   2.367e-4
0.988,   2.343e-4
0.989,   2.356e-4
0.990,   2.332e-4
0.991,   2.367e-4
0.992,   2.368e-4
0.993,   2.364e-4
0.994,   2.340e-4
0.995,   2.339e-4
0.996,   2.333e-4
0.997,   2.354e-4
0.998,   2.352e-4
0.999,   2.356e-4
1.000,   2.345e-4
1.001,   2.333e-4
1.002,   2.337e-4
1.003,   2.333e-4
1.004,   2.350e-4
1.005,   2.335e-4
1.006,   2.334e-4
1.007,   2.319e-4
1.008,   2.325e-4
1.009,   2.318e-4
1.010,   2.346e-4
1.011,   2.331e-4
1.012,   2.329e-4
1.013,   2.314e-4
1.014,   2.324e-4
1.015,   2.303e-4
1.016,   2.334e-4
1.017,   2.339e-4
1.018,   2.329e-4
1.019,   2.333e-4
1.020,   2.304e-4
1.021,   2.309e-4
1.022,   2.332e-4
1.023,   2.327e-4
1.024,   2.318e-4
1.025,   2.306e-4
1.026,   2.320e-4
1.027,   2.319e-4
1.028,   2.314e-4
1.029,   2.321e-4
1.030,   2.334e-4
1.031,   2.300e-4
1.032,   2.310e-4
1.033,   2.307e-4
1.034,   2.316e-4
1.035,   2.328e-4
1.036,   2.326e-4
1.037,   2.327e-4
1.038,   2.313e-4
1.039,   2.307e-4
1.040,   2.317e-4
1.041,   2.319e-4
1.042,   2.313e-4
1.043,   2.308e-4
1.044,   2.323e-4
1.045,   2.313e-4
1.046,   2.301e-4
1.047,   2.331e-4
1.048,   2.326e-4
1.049,   2.320e-4
1.050,   2.313e-4
1.051,   2.344e-4
1.052,   2.326e-4
1.053,   2.347e-4
1.054,   2.330e-4
1.055,   2.312e-4
1.056,   2.319e-4
1.057,   2.342e-4
1.058,   2.330e-4
1.059,   2.347e-4
1.060,   2.340e-4
1.061,   2.320e-4
1.062,   2.321e-4
1.063,   2.355e-4
1.064,   2.347e-4
1.065,   2.355e-4
1.066,   2.352e-4
1.067,   2.326e-4
1.068,   2.329e-4
1.069,   2.356e-4
1.070,   2.352e-4
1.071,   2.364e-4
1.072,   2.377e-4
1.073,   2.339e-4
1.074,   2.336e-4
1.075,   2.361e-4
1.076,   2.371e-4
1.077,   2.367e-4
1.078,   2.389e-4
1.079,   2.352e-4
1.080,   2.354e-4
1.081,   2.373e-4
1.082,   2.384e-4
1.083,   2.380e-4
1.084,   2.418e-4
1.085,   2.379e-4
1.086,   2.369e-4
1.087,   2.381e-4
1.088,   2.404e-4
1.089,   2.400e-4
1.090,   2.428e-4
1.091,   2.401e-4
1.092,   2.386e-4
1.093,   2.396e-4
1.094,   2.415e-4
1.095,   2.413e-4
1.096,   2.459e-4
1.097,   2.448e-4
1.098,   2.408e-4
1.099,   2.399e-4
1.100,   2.436e-4
1.101,   2.448e-4
1.102,   2.476e-4
1.103,   2.485e-4
1.104,   2.434e-4
1.105,   2.443e-4
1.106,   2.461e-4
1.107,   2.461e-4
1.108,   2.488e-4
1.109,   2.507e-4
1.110,   2.463e-4
1.111,   2.475e-4
1.112,   2.488e-4
1.113,   2.519e-4
1.114,   2.516e-4
1.115,   2.533e-4
1.116,   2.494e-4
1.117,   2.516e-4
1.118,   2.500e-4
1.119,   2.539e-4
1.120,   2.550e-4
1.121,   2.579e-4
1.122,   2.533e-4
1.123,   2.531e-4
1.124,   2.537e-4
1.125,   2.575e-4
1.126,   2.580e-4
1.127,   2.608e-4
1.128,   2.573e-4
1.129,   2.555e-4
1.130,   2.592e-4
1.131,   2.602e-4
1.132,   2.598e-4
1.133,   2.625e-4
1.134,   2.605e-4
1.135,   2.586e-4
1.136,   2.605e-4
1.137,   2.620e-4
1.138,   2.646e-4
1.139,   2.660e-4
1.140,   2.619e-4
1.141,   2.616e-4
1.142,   2.627e-4
1.143,   2.644e-4
1.144,   2.671e-4
1.145,   2.684e-4
1.146,   2.676e-4
1.147,   2.646e-4
1.148,   2.653e-4
1.149,   2.676e-4
1.150,   2.715e-4
1.151,   2.700e-4
1.152,   2.736e-4
1.153,   2.693e-4
1.154,   2.679e-4
1.155,   2.722e-4
1.156,   2.744e-4
1.157,   2.737e-4
1.158,   2.770e-4
1.159,   2.718e-4
1.160,   2.719e-4
1.161,   2.746e-4
1.162,   2.756e-4
1.163,   2.775e-4
1.164,   2.807e-4
1.165,   2.773e-4
1.166,   2.760e-4
1.167,   2.782e-4
1.168,   2.814e-4
1.169,   2.810e-4
1.170,   2.856e-4
1.171,   2.828e-4
1.172,   2.813e-4
1.173,   2.819e-4
1.174,   2.851e-4
1.175,   2.858e-4
1.176,   2.887e-4
1.177,   2.882e-4
1.178,   2.845e-4
1.179,   2.869e-4
1.180,   2.900e-4
1.181,   2.908e-4
1.182,   2.913e-4
1.183,   2.940e-4
1.184,   2.901e-4
1.185,   2.924e-4
1.186,   2.942e-4
1.187,   2.951e-4
1.188,   2.957e-4
1.189,   2.995e-4
1.190,   2.946e-4
1.191,   2.962e-4
1.192,   3.000e-4
1.193,   3.016e-4
1.194,   3.003e-4
1.195,   3.049e-4
1.196,   3.016e-4
1.197,   3.010e-4
1.198,   3.027e-4
1.199,   3.079e-4
1.200,   3.059e-4
1.201,   3.102e-4
1.202,   3.107e-4
1.203,   3.073e-4
1.204,   3.117e-4
1.205,   3.115e-4
1.206,   3.114e-4
1.207,   3.149e-4
1.208,   3.149e-4
1.209,   3.115e-4
1.210,   3.187e-4
1.211,   3.178e-4
1.212,   3.143e-4
1.213,   3.200e-4
1.214,   3.229e-4
1.215,   3.182e-4
1.216,   3.248e-4
1.217,   3.247e-4
1.218,   3.224e-4
1.219,   3.254e-4
1.220,   3.323e-4
1.221,   3.248e-4
1.222,   3.311e-4
1.223,   3.310e-4
1.224,   3.289e-4
1.225,   3.302e-4
1.226,   3.396e-4
1.227,   3.321e-4
1.228,   3.352e-4
1.229,   3.394e-4
1.230,   3.358e-4
1.231,   3.346e-4
1.232,   3.436e-4
1.233,   3.405e-4
1.234,   3.401e-4
1.235,   3.506e-4
1.236,   3.419e-4
1.237,   3.404e-4
1.238,   3.505e-4
1.239,   3.533e-4
1.240,   3.465e-4
1.241,   3.555e-4
1.242,   3.513e-4
1.243,   3.484e-4
1.244,   3.582e-4
1.245,   3.609e-4
1.246,   3.543e-4
1.247,   3.660e-4
1.248,   3.607e-4
1.249,   3.572e-4
1.250,   3.642e-4
1.251,   3.695e-4
1.252,   3.628e-4
1.253,   3.730e-4
1.254,   3.706e-4
1.255,   3.672e-4
1.256,   3.705e-4
1.257,   3.798e-4
1.258,   3.707e-4
1.259,   3.777e-4
1.260,   3.831e-4
1.261,   3.751e-4
1.262,   3.756e-4
1.263,   3.907e-4
1.264,   3.833e-4
1.265,   3.854e-4
1.266,   3.927e-4
1.267,   3.845e-4
1.268,   3.816e-4
1.269,   4.036e-4
1.270,   3.911e-4
1.271,   3.922e-4
1.272,   4.088e-4
1.273,   3.966e-4
1.274,   3.926e-4
1.275,   4.065e-4
1.276,   4.052e-4
1.277,   3.992e-4
1.278,   4.151e-4
1.279,   4.064e-4
1.280,   4.026e-4
1.281,   4.148e-4
1.282,   4.185e-4
1.283,   4.132e-4
1.284,   4.253e-4
1.285,   4.196e-4
1.286,   4.131e-4
1.287,   4.224e-4
1.288,   4.309e-4
1.289,   4.214e-4
1.290,   4.336e-4
1.291,   4.341e-4
1.292,   4.254e-4
1.293,   4.304e-4
1.294,   4.440e-4
1.295,   4.332e-4
1.296,   4.423e-4
1.297,   4.475e-4
1.298,   4.355e-4
1.299,   4.380e-4
1.300,   4.580e-4
1.301,   4.504e-4
1.302,   4.511e-4
1.303,   4.586e-4
1.304,   4.536e-4
1.305,   4.504e-4
1.306,   4.682e-4
1.307,   4.633e-4
1.308,   4.606e-4
1.309,   4.757e-4
1.310,   4.670e-4
1.311,   4.670e-4
1.312,   4.790e-4
1.313,   4.786e-4
1.314,   4.737e-4
1.315,   4.884e-4
1.316,   4.771e-4
1.317,   4.767e-4
1.318,   4.901e-4
1.319,   4.935e-4
1.320,   4.880e-4
1.321,   5.033e-4
1.322,   4.971e-4
1.323,   4.925e-4
1.324,   5.017e-4
1.325,   5.116e-4
1.326,   5.000e-4
1.327,   5.138e-4
1.328,   5.169e-4
1.329,   5.080e-4
1.330,   5.131e-4
1.331,   5.304e-4
1.332,   5.172e-4
1.333,   5.270e-4
1.334,   5.380e-4
1.335,   5.272e-4
1.336,   5.288e-4
1.337,   5.473e-4
1.338,   5.372e-4
1.339,   5.417e-4
1.340,   5.561e-4
1.341,   5.465e-4
1.342,   5.485e-4
1.343,   5.641e-4
1.344,   5.591e-4
1.345,   5.568e-4
1.346,   5.753e-4
1.347,   5.670e-4
1.348,   5.676e-4
1.349,   5.839e-4
1.350,   5.858e-4
1.351,   5.740e-4
1.352,   5.991e-4
1.353,   5.896e-4
1.354,   5.901e-4
1.355,   6.036e-4
1.356,   6.138e-4
1.357,   5.998e-4
1.358,   6.211e-4
1.359,   6.207e-4
1.360,   6.158e-4
1.361,   6.285e-4
1.362,   6.444e-4
1.363,   6.311e-4
1.364,   6.456e-4
1.365,   6.547e-4
1.366,   6.460e-4
1.367,   6.568e-4
1.368,   6.811e-4
1.369,   6.675e-4
1.370,   6.794e-4
1.371,   6.927e-4
1.372,   6.813e-4
1.373,   6.927e-4
1.374,   7.212e-4
1.375,   7.089e-4
1.376,   7.165e-4
1.377,   7.365e-4
1.378,   7.244e-4
1.379,   7.308e-4
1.380,   7.655e-4
1.381,   7.621e-4
1.382,   7.602e-4
1.383,   7.771e-4
1.384,   7.729e-4
1.385,   7.951e-4
1.386,   8.228e-4
1.387,   8.230e-4
1.388,   8.158e-4
1.389,   8.334e-4
1.390,   8.444e-4
1.391,   8.675e-4
1.392,   8.907e-4
1.393,   9.018e-4
1.394,   8.902e-4
1.395,   9.034e-4
1.396,   9.264e-4
1.397,   9.561e-4
1.398,   9.735e-4
1.399,   9.936e-4
1.400,   9.836e-4
1.401,   1.005e-3
1.402,   1.030e-3
1.403,   1.071e-3
1.404,   1.077e-3
1.405,   1.114e-3
1.406,   1.108e-3
1.407,   1.144e-3
1.408,   1.187e-3
1.409,   1.184e-3
1.410,   1.207e-3
1.411,   1.259e-3
1.412,   1.267e-3
1.413,   1.294e-3
1.414,   1.351e-3
1.415,   1.357e-3
1.416,   1.389e-3
1.417,   1.456e-3
1.418,   1.483e-3
1.419,   1.502e-3
1.420,   1.587e-3
1.421,   1.602e-3
1.422,   1.642e-3
1.423,   1.719e-3
1.424,   1.782e-3
1.425,   1.793e-3
1.426,   1.903e-3
1.427,   1.939e-3
1.428,   1.987e-3
1.429,   2.084e-3
1.430,   2.179e-3
1.431,   2.193e-3
1.432,   2.319e-3
1.433,   2.407e-3
1.434,   2.450e-3
1.435,   2.575e-3
1.436,   2.729e-3
1.437,   2.769e-3
1.438,   2.911e-3
1.439,   3.059e-3
1.440,   3.126e-3
1.441,   3.272e-3
1.442,   3.507e-3
1.443,   3.590e-3
1.444,   3.729e-3
1.445,   3.963e-3
1.446,   4.046e-3
1.447,   4.263e-3
1.448,   4.577e-3
1.449,   4.718e-3
1.450,   4.888e-3
1.451,   5.195e-3
1.452,   5.268e-3
1.453,   5.458e-3
1.454,   5.877e-3
1.455,   6.194e-3
1.456,   6.302e-3
1.457,   6.715e-3
1.458,   6.859e-3
1.459,   7.108e-3
1.460,   7.427e-3
1.461,   7.696e-3
1.462,   7.832e-3
1.463,   8.130e-3
1.464,   8.244e-3
1.465,   8.398e-3
1.466,   8.785e-3
1.467,   9.118e-3
1.468,   9.305e-3
1.469,   9.485e-3
1.470,   9.560e-3
1.471,   9.672e-3
1.472,   9.871e-3
1.473,   9.969e-3
1.474,   1.002e-2
1.475,   1.007e-2
1.476,   1.007e-2
1.477,   1.007e-2
1.478,   1.007e-2
1.479,   1.007e-2
1.480,   1.007e-2
1.481,   1.007e-2
1.482,   1.007e-2
1.483,   1.007e-2
1.484,   1.007e-2
1.485,   1.007e-2
1.486,   1.007e-2
1.487,   1.007e-2
1.488,   1.007e-2
1.489,   1.007e-2
1.490,   1.007e-2
1.491,   1.007e-2
1.492,   1.007e-2
1.493,   1.007e-2
1.494,   1.007e-2