File: Experimental Records, Raw Data, and Supplementary Notes and Figures/batch5/final500/B5_BEST_500_#1_High_Quality(#30)-196mV.txt
June 9, 2023   16:35:39
Linear Sweep Voltammetry
File: d:\current work\al_oer\electrochemical test data\batch 5\500\B5_BEST_500_#1_High_Quality(#30)-196mV.txt
Data Source:  Experiment
Instrument Model:  CHI660E
Header:
Note:

Init E (V) = 0.890

Final E (V) = 1.477

Scan Rate (V/s) = 0.010
Sample Interval (V) = 0.001
Quiet Time (sec) = 2
Sensitivity (A/V) = 0.001
Comp R (ohm) = 4.0

Results:

Channel 1:

Potential/V, Current/A
0.890,   3.189e-4
0.891,   3.867e-4
0.892,   3.921e-4
0.893,   3.953e-4
0.894,   3.916e-4
0.895,   3.873e-4
0.896,   3.867e-4
0.897,   3.813e-4
0.898,   3.830e-4
0.899,   3.852e-4
0.900,   3.787e-4
0.901,   3.776e-4
0.902,   3.756e-4
0.903,   3.731e-4
0.904,   3.709e-4
0.905,   3.725e-4
0.906,   3.718e-4
0.907,   3.667e-4
0.908,   3.675e-4
0.909,   3.649e-4
0.910,   3.615e-4
0.911,   3.650e-4
0.912,   3.668e-4
0.913,   3.592e-4
0.914,   3.590e-4
0.915,   3.575e-4
0.916,   3.574e-4
0.917,   3.569e-4
0.918,   3.601e-4
0.919,   3.536e-4
0.920,   3.523e-4
0.921,   3.514e-4
0.922,   3.489e-4
0.923,   3.478e-4
0.924,   3.527e-4
0.925,   3.503e-4
0.926,   3.451e-4
0.927,   3.458e-4
0.928,   3.444e-4
0.929,   3.369e-4
0.930,   3.479e-4
0.931,   3.440e-4
0.932,   3.398e-4
0.933,   3.417e-4
0.934,   3.411e-4
0.935,   3.351e-4
0.936,   3.390e-4
0.937,   3.432e-4
0.938,   3.411e-4
0.939,   3.351e-4
0.940,   3.327e-4
0.941,   3.342e-4
0.942,   3.321e-4
0.943,   3.413e-4
0.944,   3.367e-4
0.945,   3.314e-4
0.946,   3.333e-4
0.947,   3.307e-4
0.948,   3.291e-4
0.949,   3.308e-4
0.950,   3.363e-4
0.951,   3.286e-4
0.952,   3.298e-4
0.953,   3.249e-4
0.954,   3.297e-4
0.955,   3.273e-4
0.956,   3.303e-4
0.957,   3.298e-4
0.958,   3.227e-4
0.959,   3.265e-4
0.960,   3.239e-4
0.961,   3.255e-4
0.962,   3.298e-4
0.963,   3.262e-4
0.964,   3.224e-4
0.965,   3.246e-4
0.966,   3.249e-4
0.967,   3.197e-4
0.968,   3.303e-4
0.969,   3.217e-4
0.970,   3.215e-4
0.971,   3.210e-4
0.972,   3.205e-4
0.973,   3.199e-4
0.974,   3.233e-4
0.975,   3.254e-4
0.976,   3.203e-4
0.977,   3.219e-4
0.978,   3.221e-4
0.979,   3.174e-4
0.980,   3.213e-4
0.981,   3.253e-4
0.982,   3.194e-4
0.983,   3.175e-4
0.984,   3.198e-4
0.985,   3.170e-4
0.986,   3.178e-4
0.987,   3.226e-4
0.988,   3.200e-4
0.989,   3.172e-4
0.990,   3.177e-4
0.991,   3.163e-4
0.992,   3.163e-4
0.993,   3.187e-4
0.994,   3.185e-4
0.995,   3.152e-4
0.996,   3.168e-4
0.997,   3.175e-4
0.998,   3.141e-4
0.999,   3.165e-4
1.000,   3.211e-4
1.001,   3.166e-4
1.002,   3.168e-4
1.003,   3.170e-4
1.004,   3.140e-4
1.005,   3.159e-4
1.006,   3.207e-4
1.007,   3.168e-4
1.008,   3.145e-4
1.009,   3.163e-4
1.010,   3.157e-4
1.011,   3.140e-4
1.012,   3.188e-4
1.013,   3.203e-4
1.014,   3.150e-4
1.015,   3.150e-4
1.016,   3.183e-4
1.017,   3.148e-4
1.018,   3.151e-4
1.019,   3.203e-4
1.020,   3.192e-4
1.021,   3.149e-4
1.022,   3.126e-4
1.023,   3.130e-4
1.024,   3.197e-4
1.025,   3.200e-4
1.026,   3.137e-4
1.027,   3.162e-4
1.028,   3.207e-4
1.029,   3.159e-4
1.030,   3.142e-4
1.031,   3.200e-4
1.032,   3.194e-4
1.033,   3.152e-4
1.034,   3.180e-4
1.035,   3.160e-4
1.036,   3.150e-4
1.037,   3.199e-4
1.038,   3.213e-4
1.039,   3.157e-4
1.040,   3.184e-4
1.041,   3.170e-4
1.042,   3.154e-4
1.043,   3.136e-4
1.044,   3.233e-4
1.045,   3.173e-4
1.046,   3.169e-4
1.047,   3.188e-4
1.048,   3.180e-4
1.049,   3.213e-4
1.050,   3.218e-4
1.051,   3.199e-4
1.052,   3.168e-4
1.053,   3.215e-4
1.054,   3.179e-4
1.055,   3.191e-4
1.056,   3.236e-4
1.057,   3.233e-4
1.058,   3.182e-4
1.059,   3.245e-4
1.060,   3.176e-4
1.061,   3.203e-4
1.062,   3.223e-4
1.063,   3.273e-4
1.064,   3.213e-4
1.065,   3.216e-4
1.066,   3.234e-4
1.067,   3.250e-4
1.068,   3.236e-4
1.069,   3.275e-4
1.070,   3.253e-4
1.071,   3.194e-4
1.072,   3.254e-4
1.073,   3.227e-4
1.074,   3.238e-4
1.075,   3.313e-4
1.076,   3.275e-4
1.077,   3.241e-4
1.078,   3.270e-4
1.079,   3.249e-4
1.080,   3.268e-4
1.081,   3.318e-4
1.082,   3.363e-4
1.083,   3.227e-4
1.084,   3.266e-4
1.085,   3.297e-4
1.086,   3.287e-4
1.087,   3.307e-4
1.088,   3.369e-4
1.089,   3.294e-4
1.090,   3.305e-4
1.091,   3.321e-4
1.092,   3.300e-4
1.093,   3.332e-4
1.094,   3.398e-4
1.095,   3.331e-4
1.096,   3.338e-4
1.097,   3.358e-4
1.098,   3.311e-4
1.099,   3.337e-4
1.100,   3.412e-4
1.101,   3.399e-4
1.102,   3.322e-4
1.103,   3.365e-4
1.104,   3.423e-4
1.105,   3.364e-4
1.106,   3.416e-4
1.107,   3.414e-4
1.108,   3.374e-4
1.109,   3.435e-4
1.110,   3.414e-4
1.111,   3.402e-4
1.112,   3.434e-4
1.113,   3.479e-4
1.114,   3.439e-4
1.115,   3.404e-4
1.116,   3.453e-4
1.117,   3.446e-4
1.118,   3.442e-4
1.119,   3.504e-4
1.120,   3.501e-4
1.121,   3.398e-4
1.122,   3.465e-4
1.123,   3.512e-4
1.124,   3.461e-4
1.125,   3.512e-4
1.126,   3.544e-4
1.127,   3.485e-4
1.128,   3.524e-4
1.129,   3.507e-4
1.130,   3.517e-4
1.131,   3.576e-4
1.132,   3.569e-4
1.133,   3.547e-4
1.134,   3.512e-4
1.135,   3.567e-4
1.136,   3.552e-4
1.137,   3.561e-4
1.138,   3.700e-4
1.139,   3.614e-4
1.140,   3.550e-4
1.141,   3.599e-4
1.142,   3.598e-4
1.143,   3.601e-4
1.144,   3.667e-4
1.145,   3.695e-4
1.146,   3.598e-4
1.147,   3.610e-4
1.148,   3.641e-4
1.149,   3.647e-4
1.150,   3.676e-4
1.151,   3.721e-4
1.152,   3.668e-4
1.153,   3.644e-4
1.154,   3.698e-4
1.155,   3.679e-4
1.156,   3.694e-4
1.157,   3.805e-4
1.158,   3.732e-4
1.159,   3.685e-4
1.160,   3.718e-4
1.161,   3.702e-4
1.162,   3.722e-4
1.163,   3.837e-4
1.164,   3.802e-4
1.165,   3.741e-4
1.166,   3.744e-4
1.167,   3.796e-4
1.168,   3.796e-4
1.169,   3.835e-4
1.170,   3.879e-4
1.171,   3.803e-4
1.172,   3.802e-4
1.173,   3.840e-4
1.174,   3.841e-4
1.175,   3.856e-4
1.176,   3.974e-4
1.177,   3.911e-4
1.178,   3.830e-4
1.179,   3.837e-4
1.180,   3.898e-4
1.181,   3.909e-4
1.182,   3.985e-4
1.183,   3.963e-4
1.184,   3.889e-4
1.185,   3.913e-4
1.186,   3.949e-4
1.187,   3.953e-4
1.188,   4.015e-4
1.189,   4.075e-4
1.190,   3.968e-4
1.191,   3.951e-4
1.192,   4.050e-4
1.193,   4.021e-4
1.194,   4.054e-4
1.195,   4.082e-4
1.196,   4.038e-4
1.197,   4.019e-4
1.198,   4.057e-4
1.199,   4.047e-4
1.200,   4.096e-4
1.201,   4.175e-4
1.202,   4.172e-4
1.203,   4.059e-4
1.204,   4.085e-4
1.205,   4.129e-4
1.206,   4.138e-4
1.207,   4.219e-4
1.208,   4.275e-4
1.209,   4.142e-4
1.210,   4.138e-4
1.211,   4.164e-4
1.212,   4.196e-4
1.213,   4.264e-4
1.214,   4.334e-4
1.215,   4.230e-4
1.216,   4.187e-4
1.217,   4.241e-4
1.218,   4.253e-4
1.219,   4.339e-4
1.220,   4.391e-4
1.221,   4.344e-4
1.222,   4.240e-4
1.223,   4.290e-4
1.224,   4.327e-4
1.225,   4.335e-4
1.226,   4.442e-4
1.227,   4.428e-4
1.228,   4.319e-4
1.229,   4.345e-4
1.230,   4.358e-4
1.231,   4.387e-4
1.232,   4.497e-4
1.233,   4.517e-4
1.234,   4.422e-4
1.235,   4.423e-4
1.236,   4.404e-4
1.237,   4.499e-4
1.238,   4.496e-4
1.239,   4.545e-4
1.240,   4.531e-4
1.241,   4.435e-4
1.242,   4.484e-4
1.243,   4.506e-4
1.244,   4.549e-4
1.245,   4.670e-4
1.246,   4.599e-4
1.247,   4.497e-4
1.248,   4.545e-4
1.249,   4.575e-4
1.250,   4.620e-4
1.251,   4.723e-4
1.252,   4.675e-4
1.253,   4.676e-4
1.254,   4.562e-4
1.255,   4.612e-4
1.256,   4.660e-4
1.257,   4.720e-4
1.258,   4.808e-4
1.259,   4.689e-4
1.260,   4.598e-4
1.261,   4.702e-4
1.262,   4.664e-4
1.263,   4.698e-4
1.264,   4.899e-4
1.265,   4.899e-4
1.266,   4.660e-4
1.267,   4.673e-4
1.268,   4.658e-4
1.269,   4.769e-4
1.270,   4.996e-4
1.271,   4.939e-4
1.272,   4.759e-4
1.273,   4.707e-4
1.274,   4.803e-4
1.275,   4.843e-4
1.276,   4.955e-4
1.277,   5.053e-4
1.278,   4.870e-4
1.279,   4.770e-4
1.280,   4.810e-4
1.281,   4.892e-4
1.282,   5.019e-4
1.283,   5.133e-4
1.284,   4.949e-4
1.285,   4.837e-4
1.286,   4.862e-4
1.287,   4.930e-4
1.288,   5.013e-4
1.289,   5.121e-4
1.290,   5.164e-4
1.291,   4.848e-4
1.292,   4.931e-4
1.293,   5.028e-4
1.294,   5.061e-4
1.295,   5.171e-4
1.296,   5.213e-4
1.297,   5.030e-4
1.298,   4.888e-4
1.299,   5.022e-4
1.300,   5.128e-4
1.301,   5.243e-4
1.302,   5.275e-4
1.303,   5.137e-4
1.304,   5.046e-4
1.305,   5.063e-4
1.306,   5.157e-4
1.307,   5.285e-4
1.308,   5.388e-4
1.309,   5.252e-4
1.310,   5.099e-4
1.311,   5.144e-4
1.312,   5.197e-4
1.313,   5.217e-4
1.314,   5.520e-4
1.315,   5.453e-4
1.316,   5.234e-4
1.317,   5.231e-4
1.318,   5.291e-4
1.319,   5.305e-4
1.320,   5.452e-4
1.321,   5.569e-4
1.322,   5.374e-4
1.323,   5.287e-4
1.324,   5.372e-4
1.325,   5.416e-4
1.326,   5.467e-4
1.327,   5.610e-4
1.328,   5.528e-4
1.329,   5.434e-4
1.330,   5.435e-4
1.331,   5.507e-4
1.332,   5.555e-4
1.333,   5.733e-4
1.334,   5.683e-4
1.335,   5.534e-4
1.336,   5.483e-4
1.337,   5.637e-4
1.338,   5.657e-4
1.339,   5.729e-4
1.340,   5.885e-4
1.341,   5.738e-4
1.342,   5.615e-4
1.343,   5.677e-4
1.344,   5.715e-4
1.345,   5.876e-4
1.346,   6.043e-4
1.347,   5.881e-4
1.348,   5.763e-4
1.349,   5.769e-4
1.350,   5.885e-4
1.351,   5.982e-4
1.352,   6.134e-4
1.353,   6.110e-4
1.354,   5.909e-4
1.355,   5.902e-4
1.356,   5.982e-4
1.357,   6.065e-4
1.358,   6.294e-4
1.359,   6.421e-4
1.360,   6.105e-4
1.361,   5.969e-4
1.362,   6.042e-4
1.363,   6.266e-4
1.364,   6.463e-4
1.365,   6.677e-4
1.366,   6.424e-4
1.367,   6.163e-4
1.368,   6.289e-4
1.369,   6.397e-4
1.370,   6.608e-4
1.371,   6.868e-4
1.372,   6.803e-4
1.373,   6.474e-4
1.374,   6.452e-4
1.375,   6.644e-4
1.376,   6.815e-4
1.377,   7.076e-4
1.378,   7.098e-4
1.379,   6.875e-4
1.380,   6.808e-4
1.381,   6.964e-4
1.382,   7.086e-4
1.383,   7.362e-4
1.384,   7.580e-4
1.385,   7.345e-4
1.386,   7.206e-4
1.387,   7.292e-4
1.388,   7.468e-4
1.389,   7.786e-4
1.390,   8.174e-4
1.391,   7.872e-4
1.392,   7.769e-4
1.393,   7.764e-4
1.394,   8.008e-4
1.395,   8.278e-4
1.396,   8.761e-4
1.397,   8.821e-4
1.398,   8.489e-4
1.399,   8.528e-4
1.400,   8.740e-4
1.401,   8.972e-4
1.402,   9.531e-4
1.403,   9.802e-4
1.404,   9.591e-4
1.405,   9.489e-4
1.406,   9.726e-4
1.407,   1.005e-3
1.408,   1.060e-3
1.409,   1.116e-3
1.410,   1.118e-3
1.411,   1.094e-3
1.412,   1.116e-3
1.413,   1.159e-3
1.414,   1.214e-3
1.415,   1.303e-3
1.416,   1.326e-3
1.417,   1.312e-3
1.418,   1.332e-3
1.419,   1.379e-3
1.420,   1.450e-3
1.421,   1.559e-3
1.422,   1.631e-3
1.423,   1.629e-3
1.424,   1.659e-3
1.425,   1.700e-3
1.426,   1.793e-3
1.427,   1.927e-3
1.428,   2.058e-3
1.429,   2.091e-3
1.430,   2.101e-3
1.431,   2.185e-3
1.432,   2.307e-3
1.433,   2.445e-3
1.434,   2.640e-3
1.435,   2.721e-3
1.436,   2.772e-3
1.437,   2.892e-3
1.438,   3.033e-3
1.439,   3.207e-3
1.440,   3.488e-3
1.441,   3.652e-3
1.442,   3.733e-3
1.443,   3.865e-3
1.444,   4.060e-3
1.445,   4.293e-3
1.446,   4.643e-3
1.447,   4.911e-3
1.448,   5.026e-3
1.449,   5.226e-3
1.450,   5.485e-3
1.451,   5.735e-3
1.452,   6.131e-3
1.453,   6.549e-3
1.454,   6.791e-3
1.455,   7.069e-3
1.456,   7.408e-3
1.457,   7.703e-3
1.458,   8.064e-3
1.459,   8.618e-3
1.460,   8.917e-3
1.461,   9.339e-3
1.462,   9.622e-3
1.463,   9.719e-3
1.464,   9.957e-3
1.465,   1.007e-2
1.466,   1.007e-2
1.467,   1.007e-2
1.468,   1.007e-2
1.469,   1.007e-2
1.470,   1.007e-2
1.471,   1.007e-2
1.472,   1.007e-2
1.473,   1.007e-2
1.474,   1.007e-2
1.475,   1.007e-2
1.476,   1.007e-2
1.477,   1.007e-2