File: Experimental Records, Raw Data, and Supplementary Notes and Figures/batch1/final400/B1_BEST_400_#7_High_Quality-263mV.txt
Dec. 8, 2022   16:16:24
Linear Sweep Voltammetry
File: d:\current work\al_oer\electrochemical test data\batch 1\400\B1_BEST_400_#7_High_Quality-263mV.txt
Data Source:  Experiment
Instrument Model:  CHI660E
Header:
Note:

Init E (V) = 1.091

Final E (V) = 1.567

Scan Rate (V/s) = 0.010
Sample Interval (V) = 0.001
Quiet Time (sec) = 2
Sensitivity (A/V) = 0.001
Comp R (ohm) = 5.1

Results:

Channel 1:

Potential/V, Current/A
1.091,   1.342e-4
1.092,   1.255e-4
1.093,   1.170e-4
1.094,   1.091e-4
1.095,   1.021e-4
1.096,   9.611e-5
1.097,   9.077e-5
1.098,   8.602e-5
1.099,   8.180e-5
1.100,   7.786e-5
1.101,   7.430e-5
1.102,   7.107e-5
1.103,   6.816e-5
1.104,   6.553e-5
1.105,   6.302e-5
1.106,   6.076e-5
1.107,   5.867e-5
1.108,   5.681e-5
1.109,   5.506e-5
1.110,   5.340e-5
1.111,   5.194e-5
1.112,   5.062e-5
1.113,   4.925e-5
1.114,   4.801e-5
1.115,   4.677e-5
1.116,   4.568e-5
1.117,   4.475e-5
1.118,   4.378e-5
1.119,   4.289e-5
1.120,   4.210e-5
1.121,   4.130e-5
1.122,   4.052e-5
1.123,   3.979e-5
1.124,   3.917e-5
1.125,   3.854e-5
1.126,   3.788e-5
1.127,   3.743e-5
1.128,   3.695e-5
1.129,   3.644e-5
1.130,   3.595e-5
1.131,   3.553e-5
1.132,   3.509e-5
1.133,   3.471e-5
1.134,   3.423e-5
1.135,   3.386e-5
1.136,   3.350e-5
1.137,   3.316e-5
1.138,   3.290e-5
1.139,   3.257e-5
1.140,   3.233e-5
1.141,   3.208e-5
1.142,   3.179e-5
1.143,   3.153e-5
1.144,   3.130e-5
1.145,   3.109e-5
1.146,   3.085e-5
1.147,   3.065e-5
1.148,   3.049e-5
1.149,   3.033e-5
1.150,   3.013e-5
1.151,   2.995e-5
1.152,   2.976e-5
1.153,   2.963e-5
1.154,   2.950e-5
1.155,   2.934e-5
1.156,   2.923e-5
1.157,   2.915e-5
1.158,   2.899e-5
1.159,   2.889e-5
1.160,   2.875e-5
1.161,   2.861e-5
1.162,   2.853e-5
1.163,   2.847e-5
1.164,   2.836e-5
1.165,   2.829e-5
1.166,   2.822e-5
1.167,   2.817e-5
1.168,   2.803e-5
1.169,   2.798e-5
1.170,   2.795e-5
1.171,   2.785e-5
1.172,   2.782e-5
1.173,   2.778e-5
1.174,   2.771e-5
1.175,   2.767e-5
1.176,   2.765e-5
1.177,   2.758e-5
1.178,   2.757e-5
1.179,   2.755e-5
1.180,   2.753e-5
1.181,   2.754e-5
1.182,   2.755e-5
1.183,   2.747e-5
1.184,   2.741e-5
1.185,   2.737e-5
1.186,   2.738e-5
1.187,   2.736e-5
1.188,   2.736e-5
1.189,   2.732e-5
1.190,   2.732e-5
1.191,   2.729e-5
1.192,   2.731e-5
1.193,   2.732e-5
1.194,   2.735e-5
1.195,   2.734e-5
1.196,   2.734e-5
1.197,   2.735e-5
1.198,   2.732e-5
1.199,   2.739e-5
1.200,   2.738e-5
1.201,   2.738e-5
1.202,   2.740e-5
1.203,   2.742e-5
1.204,   2.739e-5
1.205,   2.740e-5
1.206,   2.740e-5
1.207,   2.741e-5
1.208,   2.743e-5
1.209,   2.743e-5
1.210,   2.748e-5
1.211,   2.747e-5
1.212,   2.752e-5
1.213,   2.757e-5
1.214,   2.760e-5
1.215,   2.769e-5
1.216,   2.766e-5
1.217,   2.765e-5
1.218,   2.768e-5
1.219,   2.769e-5
1.220,   2.773e-5
1.221,   2.777e-5
1.222,   2.777e-5
1.223,   2.782e-5
1.224,   2.786e-5
1.225,   2.788e-5
1.226,   2.790e-5
1.227,   2.796e-5
1.228,   2.800e-5
1.229,   2.803e-5
1.230,   2.800e-5
1.231,   2.809e-5
1.232,   2.810e-5
1.233,   2.815e-5
1.234,   2.821e-5
1.235,   2.818e-5
1.236,   2.821e-5
1.237,   2.824e-5
1.238,   2.830e-5
1.239,   2.837e-5
1.240,   2.842e-5
1.241,   2.843e-5
1.242,   2.848e-5
1.243,   2.854e-5
1.244,   2.859e-5
1.245,   2.869e-5
1.246,   2.871e-5
1.247,   2.873e-5
1.248,   2.874e-5
1.249,   2.881e-5
1.250,   2.885e-5
1.251,   2.890e-5
1.252,   2.897e-5
1.253,   2.902e-5
1.254,   2.899e-5
1.255,   2.904e-5
1.256,   2.911e-5
1.257,   2.915e-5
1.258,   2.923e-5
1.259,   2.927e-5
1.260,   2.933e-5
1.261,   2.937e-5
1.262,   2.944e-5
1.263,   2.951e-5
1.264,   2.953e-5
1.265,   2.957e-5
1.266,   2.966e-5
1.267,   2.969e-5
1.268,   2.979e-5
1.269,   2.983e-5
1.270,   2.982e-5
1.271,   2.989e-5
1.272,   2.987e-5
1.273,   2.999e-5
1.274,   3.009e-5
1.275,   3.005e-5
1.276,   3.016e-5
1.277,   3.024e-5
1.278,   3.027e-5
1.279,   3.036e-5
1.280,   3.043e-5
1.281,   3.050e-5
1.282,   3.049e-5
1.283,   3.054e-5
1.284,   3.058e-5
1.285,   3.068e-5
1.286,   3.073e-5
1.287,   3.081e-5
1.288,   3.080e-5
1.289,   3.086e-5
1.290,   3.094e-5
1.291,   3.099e-5
1.292,   3.108e-5
1.293,   3.117e-5
1.294,   3.122e-5
1.295,   3.130e-5
1.296,   3.135e-5
1.297,   3.140e-5
1.298,   3.152e-5
1.299,   3.154e-5
1.300,   3.164e-5
1.301,   3.170e-5
1.302,   3.179e-5
1.303,   3.189e-5
1.304,   3.190e-5
1.305,   3.199e-5
1.306,   3.210e-5
1.307,   3.215e-5
1.308,   3.222e-5
1.309,   3.230e-5
1.310,   3.240e-5
1.311,   3.250e-5
1.312,   3.258e-5
1.313,   3.268e-5
1.314,   3.283e-5
1.315,   3.284e-5
1.316,   3.296e-5
1.317,   3.307e-5
1.318,   3.313e-5
1.319,   3.325e-5
1.320,   3.335e-5
1.321,   3.348e-5
1.322,   3.352e-5
1.323,   3.356e-5
1.324,   3.369e-5
1.325,   3.385e-5
1.326,   3.397e-5
1.327,   3.410e-5
1.328,   3.429e-5
1.329,   3.447e-5
1.330,   3.452e-5
1.331,   3.455e-5
1.332,   3.466e-5
1.333,   3.481e-5
1.334,   3.496e-5
1.335,   3.507e-5
1.336,   3.524e-5
1.337,   3.536e-5
1.338,   3.550e-5
1.339,   3.560e-5
1.340,   3.572e-5
1.341,   3.586e-5
1.342,   3.604e-5
1.343,   3.621e-5
1.344,   3.629e-5
1.345,   3.644e-5
1.346,   3.665e-5
1.347,   3.680e-5
1.348,   3.699e-5
1.349,   3.724e-5
1.350,   3.739e-5
1.351,   3.757e-5
1.352,   3.772e-5
1.353,   3.792e-5
1.354,   3.817e-5
1.355,   3.847e-5
1.356,   3.869e-5
1.357,   3.888e-5
1.358,   3.917e-5
1.359,   3.948e-5
1.360,   3.973e-5
1.361,   4.006e-5
1.362,   4.042e-5
1.363,   4.075e-5
1.364,   4.117e-5
1.365,   4.161e-5
1.366,   4.198e-5
1.367,   4.244e-5
1.368,   4.299e-5
1.369,   4.351e-5
1.370,   4.399e-5
1.371,   4.452e-5
1.372,   4.516e-5
1.373,   4.584e-5
1.374,   4.650e-5
1.375,   4.722e-5
1.376,   4.801e-5
1.377,   4.884e-5
1.378,   4.971e-5
1.379,   5.060e-5
1.380,   5.168e-5
1.381,   5.280e-5
1.382,   5.393e-5
1.383,   5.519e-5
1.384,   5.654e-5
1.385,   5.792e-5
1.386,   5.943e-5
1.387,   6.104e-5
1.388,   6.275e-5
1.389,   6.456e-5
1.390,   6.653e-5
1.391,   6.858e-5
1.392,   7.071e-5
1.393,   7.304e-5
1.394,   7.559e-5
1.395,   7.820e-5
1.396,   8.097e-5
1.397,   8.390e-5
1.398,   8.700e-5
1.399,   9.027e-5
1.400,   9.381e-5
1.401,   9.733e-5
1.402,   1.012e-4
1.403,   1.051e-4
1.404,   1.092e-4
1.405,   1.137e-4
1.406,   1.185e-4
1.407,   1.233e-4
1.408,   1.285e-4
1.409,   1.337e-4
1.410,   1.393e-4
1.411,   1.450e-4
1.412,   1.511e-4
1.413,   1.576e-4
1.414,   1.642e-4
1.415,   1.711e-4
1.416,   1.781e-4
1.417,   1.856e-4
1.418,   1.934e-4
1.419,   2.013e-4
1.420,   2.095e-4
1.421,   2.182e-4
1.422,   2.271e-4
1.423,   2.364e-4
1.424,   2.460e-4
1.425,   2.561e-4
1.426,   2.663e-4
1.427,   2.768e-4
1.428,   2.877e-4
1.429,   2.989e-4
1.430,   3.107e-4
1.431,   3.228e-4
1.432,   3.352e-4
1.433,   3.482e-4
1.434,   3.616e-4
1.435,   3.753e-4
1.436,   3.894e-4
1.437,   4.039e-4
1.438,   4.189e-4
1.439,   4.344e-4
1.440,   4.499e-4
1.441,   4.662e-4
1.442,   4.826e-4
1.443,   4.992e-4
1.444,   5.169e-4
1.445,   5.349e-4
1.446,   5.533e-4
1.447,   5.720e-4
1.448,   5.911e-4
1.449,   6.107e-4
1.450,   6.308e-4
1.451,   6.516e-4
1.452,   6.729e-4
1.453,   6.947e-4
1.454,   7.168e-4
1.455,   7.396e-4
1.456,   7.624e-4
1.457,   7.863e-4
1.458,   8.087e-4
1.459,   8.321e-4
1.460,   8.560e-4
1.461,   8.815e-4
1.462,   9.065e-4
1.463,   9.319e-4
1.464,   9.585e-4
1.465,   9.864e-4
1.466,   1.015e-3
1.467,   1.044e-3
1.468,   1.072e-3
1.469,   1.101e-3
1.470,   1.130e-3
1.471,   1.161e-3
1.472,   1.191e-3
1.473,   1.223e-3
1.474,   1.254e-3
1.475,   1.288e-3
1.476,   1.320e-3
1.477,   1.352e-3
1.478,   1.386e-3
1.479,   1.420e-3
1.480,   1.452e-3
1.481,   1.486e-3
1.482,   1.521e-3
1.483,   1.557e-3
1.484,   1.596e-3
1.485,   1.632e-3
1.486,   1.670e-3
1.487,   1.705e-3
1.488,   1.741e-3
1.489,   1.779e-3
1.490,   1.818e-3
1.491,   1.857e-3
1.492,   1.896e-3
1.493,   1.934e-3
1.494,   1.972e-3
1.495,   2.012e-3
1.496,   2.052e-3
1.497,   2.092e-3
1.498,   2.134e-3
1.499,   2.170e-3
1.500,   2.212e-3
1.501,   2.248e-3
1.502,   2.289e-3
1.503,   2.329e-3
1.504,   2.373e-3
1.505,   2.415e-3
1.506,   2.452e-3
1.507,   2.494e-3
1.508,   2.537e-3
1.509,   2.572e-3
1.510,   2.614e-3
1.511,   2.654e-3
1.512,   2.693e-3
1.513,   2.733e-3
1.514,   2.769e-3
1.515,   2.808e-3
1.516,   2.849e-3
1.517,   2.888e-3
1.518,   2.925e-3
1.519,   2.965e-3
1.520,   3.005e-3
1.521,   3.042e-3
1.522,   3.080e-3
1.523,   3.116e-3
1.524,   3.153e-3
1.525,   3.189e-3
1.526,   3.227e-3
1.527,   3.264e-3
1.528,   3.297e-3
1.529,   3.335e-3
1.530,   3.369e-3
1.531,   3.403e-3
1.532,   3.438e-3
1.533,   3.472e-3
1.534,   3.506e-3
1.535,   3.543e-3
1.536,   3.576e-3
1.537,   3.611e-3
1.538,   3.645e-3
1.539,   3.677e-3
1.540,   3.703e-3
1.541,   3.731e-3
1.542,   3.760e-3
1.543,   3.792e-3
1.544,   3.820e-3
1.545,   3.851e-3
1.546,   3.881e-3
1.547,   3.910e-3
1.548,   3.936e-3
1.549,   3.961e-3
1.550,   3.988e-3
1.551,   4.017e-3
1.552,   4.042e-3
1.553,   4.068e-3
1.554,   4.093e-3
1.555,   4.117e-3
1.556,   4.141e-3
1.557,   4.164e-3
1.558,   4.186e-3
1.559,   4.204e-3
1.560,   4.222e-3
1.561,   4.247e-3
1.562,   4.267e-3
1.563,   4.284e-3
1.564,   4.302e-3
1.565,   4.321e-3
1.566,   4.339e-3
1.567,   4.355e-3