File: Experimental Records, Raw Data, and Supplementary Notes and Figures/batch1/final400/B1_BEST_400_#10_Full-234mV.txt
Dec. 6, 2022   16:53:31
Linear Sweep Voltammetry
File: d:\current work\al_oer\electrochemical test data\batch 1\400\B1_BEST_400_#10_Full-234mV.txt
Data Source:  Experiment
Instrument Model:  CHI660E
Header:
Note:

Init E (V) = 1.099

Final E (V) = 1.498

Scan Rate (V/s) = 0.010
Sample Interval (V) = 0.001
Quiet Time (sec) = 2
Sensitivity (A/V) = 0.001
Comp R (ohm) = 4.7

Results:

Channel 1:

Potential/V, Current/A
1.099,   6.898e-7
1.100,   1.080e-5
1.101,   1.328e-5
1.102,   1.420e-5
1.103,   1.490e-5
1.104,   1.533e-5
1.105,   1.570e-5
1.106,   1.618e-5
1.107,   1.642e-5
1.108,   1.671e-5
1.109,   1.696e-5
1.110,   1.710e-5
1.111,   1.737e-5
1.112,   1.755e-5
1.113,   1.771e-5
1.114,   1.793e-5
1.115,   1.801e-5
1.116,   1.822e-5
1.117,   1.843e-5
1.118,   1.850e-5
1.119,   1.871e-5
1.120,   1.889e-5
1.121,   1.894e-5
1.122,   1.910e-5
1.123,   1.918e-5
1.124,   1.933e-5
1.125,   1.946e-5
1.126,   1.950e-5
1.127,   1.966e-5
1.128,   1.975e-5
1.129,   1.988e-5
1.130,   2.007e-5
1.131,   2.004e-5
1.132,   2.021e-5
1.133,   2.038e-5
1.134,   2.043e-5
1.135,   2.058e-5
1.136,   2.066e-5
1.137,   2.073e-5
1.138,   2.092e-5
1.139,   2.099e-5
1.140,   2.107e-5
1.141,   2.121e-5
1.142,   2.125e-5
1.143,   2.142e-5
1.144,   2.147e-5
1.145,   2.162e-5
1.146,   2.175e-5
1.147,   2.173e-5
1.148,   2.187e-5
1.149,   2.201e-5
1.150,   2.205e-5
1.151,   2.221e-5
1.152,   2.223e-5
1.153,   2.228e-5
1.154,   2.253e-5
1.155,   2.252e-5
1.156,   2.266e-5
1.157,   2.279e-5
1.158,   2.285e-5
1.159,   2.303e-5
1.160,   2.308e-5
1.161,   2.315e-5
1.162,   2.333e-5
1.163,   2.332e-5
1.164,   2.347e-5
1.165,   2.360e-5
1.166,   2.365e-5
1.167,   2.379e-5
1.168,   2.382e-5
1.169,   2.393e-5
1.170,   2.411e-5
1.171,   2.417e-5
1.172,   2.424e-5
1.173,   2.437e-5
1.174,   2.438e-5
1.175,   2.457e-5
1.176,   2.459e-5
1.177,   2.465e-5
1.178,   2.487e-5
1.179,   2.490e-5
1.180,   2.501e-5
1.181,   2.515e-5
1.182,   2.519e-5
1.183,   2.542e-5
1.184,   2.546e-5
1.185,   2.550e-5
1.186,   2.565e-5
1.187,   2.563e-5
1.188,   2.583e-5
1.189,   2.591e-5
1.190,   2.596e-5
1.191,   2.611e-5
1.192,   2.618e-5
1.193,   2.626e-5
1.194,   2.641e-5
1.195,   2.640e-5
1.196,   2.661e-5
1.197,   2.670e-5
1.198,   2.669e-5
1.199,   2.687e-5
1.200,   2.688e-5
1.201,   2.698e-5
1.202,   2.713e-5
1.203,   2.716e-5
1.204,   2.724e-5
1.205,   2.738e-5
1.206,   2.738e-5
1.207,   2.759e-5
1.208,   2.756e-5
1.209,   2.770e-5
1.210,   2.788e-5
1.211,   2.786e-5
1.212,   2.795e-5
1.213,   2.804e-5
1.214,   2.805e-5
1.215,   2.821e-5
1.216,   2.837e-5
1.217,   2.834e-5
1.218,   2.849e-5
1.219,   2.845e-5
1.220,   2.856e-5
1.221,   2.869e-5
1.222,   2.883e-5
1.223,   2.890e-5
1.224,   2.888e-5
1.225,   2.894e-5
1.226,   2.910e-5
1.227,   2.901e-5
1.228,   2.922e-5
1.229,   2.926e-5
1.230,   2.924e-5
1.231,   2.939e-5
1.232,   2.943e-5
1.233,   2.950e-5
1.234,   2.962e-5
1.235,   2.966e-5
1.236,   2.974e-5
1.237,   2.980e-5
1.238,   2.977e-5
1.239,   2.995e-5
1.240,   2.997e-5
1.241,   3.004e-5
1.242,   3.021e-5
1.243,   3.011e-5
1.244,   3.024e-5
1.245,   3.032e-5
1.246,   3.031e-5
1.247,   3.048e-5
1.248,   3.049e-5
1.249,   3.049e-5
1.250,   3.061e-5
1.251,   3.059e-5
1.252,   3.070e-5
1.253,   3.078e-5
1.254,   3.077e-5
1.255,   3.091e-5
1.256,   3.092e-5
1.257,   3.099e-5
1.258,   3.113e-5
1.259,   3.106e-5
1.260,   3.118e-5
1.261,   3.133e-5
1.262,   3.126e-5
1.263,   3.141e-5
1.264,   3.140e-5
1.265,   3.144e-5
1.266,   3.154e-5
1.267,   3.151e-5
1.268,   3.162e-5
1.269,   3.174e-5
1.270,   3.167e-5
1.271,   3.183e-5
1.272,   3.184e-5
1.273,   3.194e-5
1.274,   3.203e-5
1.275,   3.198e-5
1.276,   3.211e-5
1.277,   3.216e-5
1.278,   3.212e-5
1.279,   3.228e-5
1.280,   3.231e-5
1.281,   3.232e-5
1.282,   3.247e-5
1.283,   3.240e-5
1.284,   3.254e-5
1.285,   3.264e-5
1.286,   3.262e-5
1.287,   3.274e-5
1.288,   3.269e-5
1.289,   3.277e-5
1.290,   3.289e-5
1.291,   3.282e-5
1.292,   3.302e-5
1.293,   3.312e-5
1.294,   3.305e-5
1.295,   3.322e-5
1.296,   3.325e-5
1.297,   3.325e-5
1.298,   3.338e-5
1.299,   3.338e-5
1.300,   3.345e-5
1.301,   3.357e-5
1.302,   3.353e-5
1.303,   3.372e-5
1.304,   3.371e-5
1.305,   3.375e-5
1.306,   3.388e-5
1.307,   3.387e-5
1.308,   3.400e-5
1.309,   3.408e-5
1.310,   3.406e-5
1.311,   3.429e-5
1.312,   3.429e-5
1.313,   3.431e-5
1.314,   3.448e-5
1.315,   3.440e-5
1.316,   3.457e-5
1.317,   3.467e-5
1.318,   3.470e-5
1.319,   3.486e-5
1.320,   3.484e-5
1.321,   3.490e-5
1.322,   3.514e-5
1.323,   3.505e-5
1.324,   3.530e-5
1.325,   3.542e-5
1.326,   3.538e-5
1.327,   3.554e-5
1.328,   3.554e-5
1.329,   3.565e-5
1.330,   3.589e-5
1.331,   3.585e-5
1.332,   3.597e-5
1.333,   3.613e-5
1.334,   3.614e-5
1.335,   3.636e-5
1.336,   3.639e-5
1.337,   3.658e-5
1.338,   3.676e-5
1.339,   3.667e-5
1.340,   3.692e-5
1.341,   3.710e-5
1.342,   3.713e-5
1.343,   3.733e-5
1.344,   3.746e-5
1.345,   3.752e-5
1.346,   3.777e-5
1.347,   3.776e-5
1.348,   3.803e-5
1.349,   3.822e-5
1.350,   3.838e-5
1.351,   3.856e-5
1.352,   3.871e-5
1.353,   3.883e-5
1.354,   3.916e-5
1.355,   3.924e-5
1.356,   3.956e-5
1.357,   3.986e-5
1.358,   3.993e-5
1.359,   4.028e-5
1.360,   4.047e-5
1.361,   4.072e-5
1.362,   4.113e-5
1.363,   4.137e-5
1.364,   4.168e-5
1.365,   4.206e-5
1.366,   4.225e-5
1.367,   4.278e-5
1.368,   4.310e-5
1.369,   4.353e-5
1.370,   4.412e-5
1.371,   4.442e-5
1.372,   4.495e-5
1.373,   4.563e-5
1.374,   4.614e-5
1.375,   4.686e-5
1.376,   4.753e-5
1.377,   4.820e-5
1.378,   4.905e-5
1.379,   4.976e-5
1.380,   5.068e-5
1.381,   5.171e-5
1.382,   5.268e-5
1.383,   5.383e-5
1.384,   5.494e-5
1.385,   5.620e-5
1.386,   5.769e-5
1.387,   5.906e-5
1.388,   6.077e-5
1.389,   6.247e-5
1.390,   6.420e-5
1.391,   6.626e-5
1.392,   6.835e-5
1.393,   7.060e-5
1.394,   7.320e-5
1.395,   7.577e-5
1.396,   7.864e-5
1.397,   8.172e-5
1.398,   8.492e-5
1.399,   8.852e-5
1.400,   9.221e-5
1.401,   9.638e-5
1.402,   1.007e-4
1.403,   1.052e-4
1.404,   1.102e-4
1.405,   1.155e-4
1.406,   1.211e-4
1.407,   1.273e-4
1.408,   1.336e-4
1.409,   1.403e-4
1.410,   1.477e-4
1.411,   1.553e-4
1.412,   1.635e-4
1.413,   1.723e-4
1.414,   1.814e-4
1.415,   1.912e-4
1.416,   2.013e-4
1.417,   2.122e-4
1.418,   2.239e-4
1.419,   2.358e-4
1.420,   2.487e-4
1.421,   2.623e-4
1.422,   2.763e-4
1.423,   2.913e-4
1.424,   3.068e-4
1.425,   3.233e-4
1.426,   3.405e-4
1.427,   3.588e-4
1.428,   3.776e-4
1.429,   3.973e-4
1.430,   4.178e-4
1.431,   4.397e-4
1.432,   4.620e-4
1.433,   4.855e-4
1.434,   5.101e-4
1.435,   5.353e-4
1.436,   5.620e-4
1.437,   5.897e-4
1.438,   6.183e-4
1.439,   6.484e-4
1.440,   6.795e-4
1.441,   7.118e-4
1.442,   7.455e-4
1.443,   7.802e-4
1.444,   8.163e-4
1.445,   8.538e-4
1.446,   8.926e-4
1.447,   9.330e-4
1.448,   9.746e-4
1.449,   1.018e-3
1.450,   1.063e-3
1.451,   1.109e-3
1.452,   1.156e-3
1.453,   1.206e-3
1.454,   1.257e-3
1.455,   1.310e-3
1.456,   1.364e-3
1.457,   1.420e-3
1.458,   1.478e-3
1.459,   1.538e-3
1.460,   1.600e-3
1.461,   1.663e-3
1.462,   1.729e-3
1.463,   1.796e-3
1.464,   1.866e-3
1.465,   1.938e-3
1.466,   2.012e-3
1.467,   2.087e-3
1.468,   2.165e-3
1.469,   2.245e-3
1.470,   2.327e-3
1.471,   2.412e-3
1.472,   2.499e-3
1.473,   2.588e-3
1.474,   2.679e-3
1.475,   2.773e-3
1.476,   2.869e-3
1.477,   2.967e-3
1.478,   3.068e-3
1.479,   3.172e-3
1.480,   3.277e-3
1.481,   3.385e-3
1.482,   3.495e-3
1.483,   3.608e-3
1.484,   3.723e-3
1.485,   3.840e-3
1.486,   3.960e-3
1.487,   4.083e-3
1.488,   4.207e-3
1.489,   4.335e-3
1.490,   4.465e-3
1.491,   4.597e-3
1.492,   4.731e-3
1.493,   4.868e-3
1.494,   5.008e-3
1.495,   5.150e-3
1.496,   5.294e-3
1.497,   5.441e-3
1.498,   5.590e-3