File: Experimental Records, Raw Data, and Supplementary Notes and Figures/batch1/final400/B1_VARIANCE_400_#6_Full-277mV.txt
Dec. 6, 2022   15:57:47
Linear Sweep Voltammetry
File: d:\current work\al_oer\electrochemical test data\batch 1\400\B1_VARIANCE_400_#6_Full-277mV.txt
Data Source:  Experiment
Instrument Model:  CHI660E
Header:
Note:

Init E (V) = 1.091

Final E (V) = 1.566

Scan Rate (V/s) = 0.010
Sample Interval (V) = 0.001
Quiet Time (sec) = 2
Sensitivity (A/V) = 0.001
Comp R (ohm) = 4.6

Results:

Channel 1:
Ep = 1.052V
ip = 8.726e-5A
Ah = 7.677e-4C

Potential/V, Current/A
1.091,   3.660e-4
1.092,   3.462e-4
1.093,   3.238e-4
1.094,   3.025e-4
1.095,   2.835e-4
1.096,   2.665e-4
1.097,   2.514e-4
1.098,   2.380e-4
1.099,   2.259e-4
1.100,   2.152e-4
1.101,   2.056e-4
1.102,   1.968e-4
1.103,   1.892e-4
1.104,   1.821e-4
1.105,   1.757e-4
1.106,   1.700e-4
1.107,   1.646e-4
1.108,   1.599e-4
1.109,   1.555e-4
1.110,   1.514e-4
1.111,   1.480e-4
1.112,   1.447e-4
1.113,   1.416e-4
1.114,   1.389e-4
1.115,   1.362e-4
1.116,   1.340e-4
1.117,   1.320e-4
1.118,   1.299e-4
1.119,   1.283e-4
1.120,   1.266e-4
1.121,   1.251e-4
1.122,   1.239e-4
1.123,   1.226e-4
1.124,   1.216e-4
1.125,   1.206e-4
1.126,   1.196e-4
1.127,   1.189e-4
1.128,   1.181e-4
1.129,   1.174e-4
1.130,   1.170e-4
1.131,   1.163e-4
1.132,   1.159e-4
1.133,   1.156e-4
1.134,   1.152e-4
1.135,   1.150e-4
1.136,   1.146e-4
1.137,   1.145e-4
1.138,   1.145e-4
1.139,   1.142e-4
1.140,   1.142e-4
1.141,   1.142e-4
1.142,   1.141e-4
1.143,   1.143e-4
1.144,   1.144e-4
1.145,   1.145e-4
1.146,   1.147e-4
1.147,   1.147e-4
1.148,   1.150e-4
1.149,   1.152e-4
1.150,   1.154e-4
1.151,   1.159e-4
1.152,   1.161e-4
1.153,   1.164e-4
1.154,   1.168e-4
1.155,   1.171e-4
1.156,   1.176e-4
1.157,   1.181e-4
1.158,   1.184e-4
1.159,   1.190e-4
1.160,   1.194e-4
1.161,   1.199e-4
1.162,   1.205e-4
1.163,   1.210e-4
1.164,   1.216e-4
1.165,   1.223e-4
1.166,   1.227e-4
1.167,   1.234e-4
1.168,   1.240e-4
1.169,   1.247e-4
1.170,   1.255e-4
1.171,   1.261e-4
1.172,   1.269e-4
1.173,   1.276e-4
1.174,   1.284e-4
1.175,   1.293e-4
1.176,   1.301e-4
1.177,   1.309e-4
1.178,   1.319e-4
1.179,   1.325e-4
1.180,   1.336e-4
1.181,   1.346e-4
1.182,   1.355e-4
1.183,   1.366e-4
1.184,   1.376e-4
1.185,   1.385e-4
1.186,   1.397e-4
1.187,   1.406e-4
1.188,   1.419e-4
1.189,   1.431e-4
1.190,   1.441e-4
1.191,   1.454e-4
1.192,   1.465e-4
1.193,   1.478e-4
1.194,   1.492e-4
1.195,   1.503e-4
1.196,   1.517e-4
1.197,   1.530e-4
1.198,   1.543e-4
1.199,   1.559e-4
1.200,   1.572e-4
1.201,   1.588e-4
1.202,   1.603e-4
1.203,   1.615e-4
1.204,   1.631e-4
1.205,   1.646e-4
1.206,   1.660e-4
1.207,   1.677e-4
1.208,   1.692e-4
1.209,   1.706e-4
1.210,   1.722e-4
1.211,   1.735e-4
1.212,   1.751e-4
1.213,   1.767e-4
1.214,   1.784e-4
1.215,   1.798e-4
1.216,   1.810e-4
1.217,   1.824e-4
1.218,   1.840e-4
1.219,   1.851e-4
1.220,   1.867e-4
1.221,   1.880e-4
1.222,   1.891e-4
1.223,   1.904e-4
1.224,   1.914e-4
1.225,   1.925e-4
1.226,   1.938e-4
1.227,   1.948e-4
1.228,   1.957e-4
1.229,   1.966e-4
1.230,   1.973e-4
1.231,   1.982e-4
1.232,   1.989e-4
1.233,   1.995e-4
1.234,   2.003e-4
1.235,   2.005e-4
1.236,   2.011e-4
1.237,   2.015e-4
1.238,   2.016e-4
1.239,   2.021e-4
1.240,   2.022e-4
1.241,   2.023e-4
1.242,   2.025e-4
1.243,   2.021e-4
1.244,   2.022e-4
1.245,   2.020e-4
1.246,   2.017e-4
1.247,   2.016e-4
1.248,   2.012e-4
1.249,   2.007e-4
1.250,   2.005e-4
1.251,   1.997e-4
1.252,   1.993e-4
1.253,   1.990e-4
1.254,   1.979e-4
1.255,   1.976e-4
1.256,   1.967e-4
1.257,   1.959e-4
1.258,   1.954e-4
1.259,   1.944e-4
1.260,   1.938e-4
1.261,   1.930e-4
1.262,   1.919e-4
1.263,   1.913e-4
1.264,   1.904e-4
1.265,   1.897e-4
1.266,   1.890e-4
1.267,   1.877e-4
1.268,   1.870e-4
1.269,   1.862e-4
1.270,   1.850e-4
1.271,   1.844e-4
1.272,   1.836e-4
1.273,   1.827e-4
1.274,   1.821e-4
1.275,   1.808e-4
1.276,   1.802e-4
1.277,   1.795e-4
1.278,   1.787e-4
1.279,   1.781e-4
1.280,   1.772e-4
1.281,   1.765e-4
1.282,   1.761e-4
1.283,   1.749e-4
1.284,   1.745e-4
1.285,   1.742e-4
1.286,   1.732e-4
1.287,   1.729e-4
1.288,   1.723e-4
1.289,   1.717e-4
1.290,   1.715e-4
1.291,   1.708e-4
1.292,   1.705e-4
1.293,   1.701e-4
1.294,   1.693e-4
1.295,   1.694e-4
1.296,   1.687e-4
1.297,   1.683e-4
1.298,   1.685e-4
1.299,   1.676e-4
1.300,   1.675e-4
1.301,   1.675e-4
1.302,   1.669e-4
1.303,   1.670e-4
1.304,   1.667e-4
1.305,   1.663e-4
1.306,   1.665e-4
1.307,   1.660e-4
1.308,   1.661e-4
1.309,   1.662e-4
1.310,   1.658e-4
1.311,   1.660e-4
1.312,   1.657e-4
1.313,   1.655e-4
1.314,   1.659e-4
1.315,   1.654e-4
1.316,   1.659e-4
1.317,   1.662e-4
1.318,   1.655e-4
1.319,   1.659e-4
1.320,   1.658e-4
1.321,   1.657e-4
1.322,   1.660e-4
1.323,   1.657e-4
1.324,   1.659e-4
1.325,   1.662e-4
1.326,   1.659e-4
1.327,   1.663e-4
1.328,   1.664e-4
1.329,   1.665e-4
1.330,   1.670e-4
1.331,   1.663e-4
1.332,   1.666e-4
1.333,   1.670e-4
1.334,   1.666e-4
1.335,   1.673e-4
1.336,   1.672e-4
1.337,   1.671e-4
1.338,   1.677e-4
1.339,   1.672e-4
1.340,   1.675e-4
1.341,   1.681e-4
1.342,   1.678e-4
1.343,   1.683e-4
1.344,   1.683e-4
1.345,   1.684e-4
1.346,   1.690e-4
1.347,   1.683e-4
1.348,   1.690e-4
1.349,   1.692e-4
1.350,   1.689e-4
1.351,   1.695e-4
1.352,   1.697e-4
1.353,   1.696e-4
1.354,   1.704e-4
1.355,   1.703e-4
1.356,   1.705e-4
1.357,   1.709e-4
1.358,   1.705e-4
1.359,   1.715e-4
1.360,   1.714e-4
1.361,   1.717e-4
1.362,   1.722e-4
1.363,   1.721e-4
1.364,   1.727e-4
1.365,   1.730e-4
1.366,   1.732e-4
1.367,   1.740e-4
1.368,   1.741e-4
1.369,   1.742e-4
1.370,   1.749e-4
1.371,   1.747e-4
1.372,   1.753e-4
1.373,   1.758e-4
1.374,   1.760e-4
1.375,   1.767e-4
1.376,   1.770e-4
1.377,   1.770e-4
1.378,   1.780e-4
1.379,   1.776e-4
1.380,   1.787e-4
1.381,   1.792e-4
1.382,   1.788e-4
1.383,   1.797e-4
1.384,   1.801e-4
1.385,   1.803e-4
1.386,   1.814e-4
1.387,   1.813e-4
1.388,   1.819e-4
1.389,   1.825e-4
1.390,   1.825e-4
1.391,   1.835e-4
1.392,   1.838e-4
1.393,   1.844e-4
1.394,   1.851e-4
1.395,   1.850e-4
1.396,   1.859e-4
1.397,   1.865e-4
1.398,   1.864e-4
1.399,   1.876e-4
1.400,   1.880e-4
1.401,   1.883e-4
1.402,   1.894e-4
1.403,   1.893e-4
1.404,   1.902e-4
1.405,   1.909e-4
1.406,   1.916e-4
1.407,   1.922e-4
1.408,   1.926e-4
1.409,   1.936e-4
1.410,   1.946e-4
1.411,   1.945e-4
1.412,   1.957e-4
1.413,   1.969e-4
1.414,   1.972e-4
1.415,   1.985e-4
1.416,   1.995e-4
1.417,   2.003e-4
1.418,   2.019e-4
1.419,   2.036e-4
1.420,   2.044e-4
1.421,   2.057e-4
1.422,   2.063e-4
1.423,   2.082e-4
1.424,   2.096e-4
1.425,   2.111e-4
1.426,   2.132e-4
1.427,   2.144e-4
1.428,   2.166e-4
1.429,   2.188e-4
1.430,   2.203e-4
1.431,   2.232e-4
1.432,   2.254e-4
1.433,   2.277e-4
1.434,   2.308e-4
1.435,   2.331e-4
1.436,   2.360e-4
1.437,   2.397e-4
1.438,   2.425e-4
1.439,   2.463e-4
1.440,   2.500e-4
1.441,   2.535e-4
1.442,   2.580e-4
1.443,   2.615e-4
1.444,   2.666e-4
1.445,   2.716e-4
1.446,   2.760e-4
1.447,   2.816e-4
1.448,   2.869e-4
1.449,   2.925e-4
1.450,   2.991e-4
1.451,   3.051e-4
1.452,   3.118e-4
1.453,   3.192e-4
1.454,   3.259e-4
1.455,   3.344e-4
1.456,   3.421e-4
1.457,   3.505e-4
1.458,   3.598e-4
1.459,   3.686e-4
1.460,   3.788e-4
1.461,   3.895e-4
1.462,   3.997e-4
1.463,   4.114e-4
1.464,   4.235e-4
1.465,   4.352e-4
1.466,   4.487e-4
1.467,   4.619e-4
1.468,   4.763e-4
1.469,   4.916e-4
1.470,   5.068e-4
1.471,   5.230e-4
1.472,   5.398e-4
1.473,   5.573e-4
1.474,   5.765e-4
1.475,   5.954e-4
1.476,   6.159e-4
1.477,   6.375e-4
1.478,   6.590e-4
1.479,   6.825e-4
1.480,   7.061e-4
1.481,   7.312e-4
1.482,   7.576e-4
1.483,   7.846e-4
1.484,   8.132e-4
1.485,   8.429e-4
1.486,   8.733e-4
1.487,   9.056e-4
1.488,   9.391e-4
1.489,   9.743e-4
1.490,   1.011e-3
1.491,   1.048e-3
1.492,   1.087e-3
1.493,   1.128e-3
1.494,   1.170e-3
1.495,   1.214e-3
1.496,   1.259e-3
1.497,   1.306e-3
1.498,   1.355e-3
1.499,   1.405e-3
1.500,   1.456e-3
1.501,   1.510e-3
1.502,   1.566e-3
1.503,   1.623e-3
1.504,   1.682e-3
1.505,   1.744e-3
1.506,   1.809e-3
1.507,   1.874e-3
1.508,   1.942e-3
1.509,   2.012e-3
1.510,   2.083e-3
1.511,   2.157e-3
1.512,   2.232e-3
1.513,   2.311e-3
1.514,   2.390e-3
1.515,   2.472e-3
1.516,   2.555e-3
1.517,   2.640e-3
1.518,   2.729e-3
1.519,   2.820e-3
1.520,   2.914e-3
1.521,   3.009e-3
1.522,   3.106e-3
1.523,   3.209e-3
1.524,   3.313e-3
1.525,   3.421e-3
1.526,   3.534e-3
1.527,   3.640e-3
1.528,   3.747e-3
1.529,   3.863e-3
1.530,   3.988e-3
1.531,   4.116e-3
1.532,   4.248e-3
1.533,   4.383e-3
1.534,   4.531e-3
1.535,   4.677e-3
1.536,   4.827e-3
1.537,   4.979e-3
1.538,   5.134e-3
1.539,   5.293e-3
1.540,   5.455e-3
1.541,   5.621e-3
1.542,   5.793e-3
1.543,   5.971e-3
1.544,   6.155e-3
1.545,   6.333e-3
1.546,   6.519e-3
1.547,   6.718e-3
1.548,   6.914e-3
1.549,   7.117e-3
1.550,   7.326e-3
1.551,   7.546e-3
1.552,   7.759e-3
1.553,   7.977e-3
1.554,   8.212e-3
1.555,   8.451e-3
1.556,   8.684e-3
1.557,   8.917e-3
1.558,   9.163e-3
1.559,   9.428e-3
1.560,   9.683e-3
1.561,   9.929e-3
1.562,   1.007e-2
1.563,   1.007e-2
1.564,   1.007e-2
1.565,   1.007e-2
1.566,   1.007e-2