File: Experimental Records and Raw Data/batch2/final400/B2_BEST_400#7_Full-187mV.txt
Jan. 13, 2023   17:00:58
Linear Sweep Voltammetry
File: d:\current work\al_oer\electrochemical test data\batch 2\400\B2_BEST_400#7_Full-187mV.txt
Data Source:  Experiment
Instrument Model:  CHI660E
Header:
Note:

Init E (V) = 1.098

Final E (V) = 1.449

Scan Rate (V/s) = 0.010
Sample Interval (V) = 0.001
Quiet Time (sec) = 2
Sensitivity (A/V) = 0.001
Comp R (ohm) = 6.0

Results:

Channel 1:

Potential/V, Current/A
1.098,   8.295e-4
1.099,   7.511e-4
1.100,   6.736e-4
1.101,   6.080e-4
1.102,   5.557e-4
1.103,   5.094e-4
1.104,   4.681e-4
1.105,   4.345e-4
1.106,   4.073e-4
1.107,   3.815e-4
1.108,   3.560e-4
1.109,   3.410e-4
1.110,   3.291e-4
1.111,   3.162e-4
1.112,   2.999e-4
1.113,   2.896e-4
1.114,   2.833e-4
1.115,   2.709e-4
1.116,   2.614e-4
1.117,   2.564e-4
1.118,   2.518e-4
1.119,   2.403e-4
1.120,   2.364e-4
1.121,   2.347e-4
1.122,   2.236e-4
1.123,   2.217e-4
1.124,   2.205e-4
1.125,   2.112e-4
1.126,   2.131e-4
1.127,   2.069e-4
1.128,   2.019e-4
1.129,   2.063e-4
1.130,   1.960e-4
1.131,   2.002e-4
1.132,   1.974e-4
1.133,   1.927e-4
1.134,   1.962e-4
1.135,   1.859e-4
1.136,   1.896e-4
1.137,   1.796e-4
1.138,   1.860e-4
1.139,   1.791e-4
1.140,   1.874e-4
1.141,   1.813e-4
1.142,   1.826e-4
1.143,   1.705e-4
1.144,   1.770e-4
1.145,   1.737e-4
1.146,   1.831e-4
1.147,   1.694e-4
1.148,   1.722e-4
1.149,   1.682e-4
1.150,   1.779e-4
1.151,   1.723e-4
1.152,   1.605e-4
1.153,   1.741e-4
1.154,   1.719e-4
1.155,   1.660e-4
1.156,   1.635e-4
1.157,   1.682e-4
1.158,   1.732e-4
1.159,   1.577e-4
1.160,   1.668e-4
1.161,   1.720e-4
1.162,   1.564e-4
1.163,   1.673e-4
1.164,   1.702e-4
1.165,   1.570e-4
1.166,   1.670e-4
1.167,   1.606e-4
1.168,   1.640e-4
1.169,   1.648e-4
1.170,   1.535e-4
1.171,   1.734e-4
1.172,   1.580e-4
1.173,   1.578e-4
1.174,   1.649e-4
1.175,   1.588e-4
1.176,   1.700e-4
1.177,   1.490e-4
1.178,   1.663e-4
1.179,   1.540e-4
1.180,   1.705e-4
1.181,   1.535e-4
1.182,   1.619e-4
1.183,   1.538e-4
1.184,   1.646e-4
1.185,   1.585e-4
1.186,   1.657e-4
1.187,   1.532e-4
1.188,   1.633e-4
1.189,   1.480e-4
1.190,   1.681e-4
1.191,   1.516e-4
1.192,   1.698e-4
1.193,   1.517e-4
1.194,   1.647e-4
1.195,   1.525e-4
1.196,   1.609e-4
1.197,   1.572e-4
1.198,   1.508e-4
1.199,   1.693e-4
1.200,   1.467e-4
1.201,   1.678e-4
1.202,   1.579e-4
1.203,   1.535e-4
1.204,   1.704e-4
1.205,   1.509e-4
1.206,   1.583e-4
1.207,   1.599e-4
1.208,   1.513e-4
1.209,   1.684e-4
1.210,   1.528e-4
1.211,   1.528e-4
1.212,   1.656e-4
1.213,   1.513e-4
1.214,   1.560e-4
1.215,   1.668e-4
1.216,   1.517e-4
1.217,   1.545e-4
1.218,   1.681e-4
1.219,   1.538e-4
1.220,   1.519e-4
1.221,   1.679e-4
1.222,   1.581e-4
1.223,   1.511e-4
1.224,   1.670e-4
1.225,   1.608e-4
1.226,   1.487e-4
1.227,   1.596e-4
1.228,   1.641e-4
1.229,   1.551e-4
1.230,   1.537e-4
1.231,   1.628e-4
1.232,   1.585e-4
1.233,   1.499e-4
1.234,   1.508e-4
1.235,   1.689e-4
1.236,   1.581e-4
1.237,   1.507e-4
1.238,   1.577e-4
1.239,   1.681e-4
1.240,   1.647e-4
1.241,   1.515e-4
1.242,   1.543e-4
1.243,   1.603e-4
1.244,   1.607e-4
1.245,   1.539e-4
1.246,   1.521e-4
1.247,   1.586e-4
1.248,   1.675e-4
1.249,   1.657e-4
1.250,   1.556e-4
1.251,   1.521e-4
1.252,   1.541e-4
1.253,   1.635e-4
1.254,   1.604e-4
1.255,   1.614e-4
1.256,   1.559e-4
1.257,   1.573e-4
1.258,   1.685e-4
1.259,   1.563e-4
1.260,   1.536e-4
1.261,   1.512e-4
1.262,   1.586e-4
1.263,   1.710e-4
1.264,   1.660e-4
1.265,   1.578e-4
1.266,   1.527e-4
1.267,   1.527e-4
1.268,   1.623e-4
1.269,   1.617e-4
1.270,   1.639e-4
1.271,   1.604e-4
1.272,   1.567e-4
1.273,   1.599e-4
1.274,   1.593e-4
1.275,   1.608e-4
1.276,   1.649e-4
1.277,   1.611e-4
1.278,   1.580e-4
1.279,   1.570e-4
1.280,   1.592e-4
1.281,   1.622e-4
1.282,   1.635e-4
1.283,   1.638e-4
1.284,   1.587e-4
1.285,   1.572e-4
1.286,   1.594e-4
1.287,   1.626e-4
1.288,   1.697e-4
1.289,   1.656e-4
1.290,   1.566e-4
1.291,   1.504e-4
1.292,   1.578e-4
1.293,   1.696e-4
1.294,   1.708e-4
1.295,   1.635e-4
1.296,   1.579e-4
1.297,   1.626e-4
1.298,   1.659e-4
1.299,   1.617e-4
1.300,   1.527e-4
1.301,   1.586e-4
1.302,   1.701e-4
1.303,   1.707e-4
1.304,   1.631e-4
1.305,   1.616e-4
1.306,   1.691e-4
1.307,   1.687e-4
1.308,   1.612e-4
1.309,   1.539e-4
1.310,   1.660e-4
1.311,   1.679e-4
1.312,   1.619e-4
1.313,   1.598e-4
1.314,   1.701e-4
1.315,   1.738e-4
1.316,   1.652e-4
1.317,   1.636e-4
1.318,   1.722e-4
1.319,   1.724e-4
1.320,   1.609e-4
1.321,   1.630e-4
1.322,   1.708e-4
1.323,   1.723e-4
1.324,   1.588e-4
1.325,   1.654e-4
1.326,   1.727e-4
1.327,   1.673e-4
1.328,   1.628e-4
1.329,   1.738e-4
1.330,   1.766e-4
1.331,   1.633e-4
1.332,   1.726e-4
1.333,   1.795e-4
1.334,   1.708e-4
1.335,   1.688e-4
1.336,   1.809e-4
1.337,   1.768e-4
1.338,   1.679e-4
1.339,   1.773e-4
1.340,   1.827e-4
1.341,   1.688e-4
1.342,   1.764e-4
1.343,   1.848e-4
1.344,   1.749e-4
1.345,   1.758e-4
1.346,   1.867e-4
1.347,   1.826e-4
1.348,   1.752e-4
1.349,   1.894e-4
1.350,   1.877e-4
1.351,   1.791e-4
1.352,   1.933e-4
1.353,   1.924e-4
1.354,   1.837e-4
1.355,   1.969e-4
1.356,   1.981e-4
1.357,   1.887e-4
1.358,   2.038e-4
1.359,   2.036e-4
1.360,   1.965e-4
1.361,   2.120e-4
1.362,   2.102e-4
1.363,   2.045e-4
1.364,   2.221e-4
1.365,   2.182e-4
1.366,   2.148e-4
1.367,   2.345e-4
1.368,   2.319e-4
1.369,   2.286e-4
1.370,   2.461e-4
1.371,   2.518e-4
1.372,   2.432e-4
1.373,   2.602e-4
1.374,   2.721e-4
1.375,   2.654e-4
1.376,   2.832e-4
1.377,   2.947e-4
1.378,   2.894e-4
1.379,   3.117e-4
1.380,   3.217e-4
1.381,   3.197e-4
1.382,   3.481e-4
1.383,   3.561e-4
1.384,   3.598e-4
1.385,   3.895e-4
1.386,   3.992e-4
1.387,   4.077e-4
1.388,   4.414e-4
1.389,   4.526e-4
1.390,   4.663e-4
1.391,   5.025e-4
1.392,   5.189e-4
1.393,   5.364e-4
1.394,   5.761e-4
1.395,   6.034e-4
1.396,   6.221e-4
1.397,   6.630e-4
1.398,   7.041e-4
1.399,   7.247e-4
1.400,   7.685e-4
1.401,   8.167e-4
1.402,   8.532e-4
1.403,   8.904e-4
1.404,   9.484e-4
1.405,   1.007e-3
1.406,   1.050e-3
1.407,   1.109e-3
1.408,   1.182e-3
1.409,   1.246e-3
1.410,   1.301e-3
1.411,   1.376e-3
1.412,   1.463e-3
1.413,   1.532e-3
1.414,   1.612e-3
1.415,   1.713e-3
1.416,   1.803e-3
1.417,   1.889e-3
1.418,   2.006e-3
1.419,   2.109e-3
1.420,   2.219e-3
1.421,   2.354e-3
1.422,   2.467e-3
1.423,   2.616e-3
1.424,   2.744e-3
1.425,   2.898e-3
1.426,   3.030e-3
1.427,   3.213e-3
1.428,   3.384e-3
1.429,   3.545e-3
1.430,   3.784e-3
1.431,   4.004e-3
1.432,   4.276e-3
1.433,   4.534e-3
1.434,   4.819e-3
1.435,   5.138e-3
1.436,   5.447e-3
1.437,   5.806e-3
1.438,   6.192e-3
1.439,   6.593e-3
1.440,   7.013e-3
1.441,   7.481e-3
1.442,   7.956e-3
1.443,   8.466e-3
1.444,   9.030e-3
1.445,   9.687e-3
1.446,   1.006e-2
1.447,   1.006e-2
1.448,   1.006e-2
1.449,   1.006e-2