File: Experimental Records and Raw Data/batch2/final400/B2_BEST_400#13_High_Quality-233mV.txt
Jan. 14, 2023   14:38:14
Linear Sweep Voltammetry
File: d:\current work\al_oer\electrochemical test data\batch 2\400\B2_BEST_400#13_High_Quality-233mV.txt
Data Source:  Experiment
Instrument Model:  CHI660E
Header:
Note:

Init E (V) = 1.099

Final E (V) = 1.517

Scan Rate (V/s) = 0.010
Sample Interval (V) = 0.001
Quiet Time (sec) = 2
Sensitivity (A/V) = 0.001
Comp R (ohm) = 6.4

Results:

Channel 1:

Potential/V, Current/A
1.099,   3.133e-4
1.100,   2.945e-4
1.101,   2.731e-4
1.102,   2.537e-4
1.103,   2.367e-4
1.104,   2.218e-4
1.105,   2.085e-4
1.106,   1.971e-4
1.107,   1.868e-4
1.108,   1.777e-4
1.109,   1.697e-4
1.110,   1.623e-4
1.111,   1.557e-4
1.112,   1.497e-4
1.113,   1.444e-4
1.114,   1.395e-4
1.115,   1.349e-4
1.116,   1.308e-4
1.117,   1.270e-4
1.118,   1.235e-4
1.119,   1.204e-4
1.120,   1.176e-4
1.121,   1.145e-4
1.122,   1.120e-4
1.123,   1.095e-4
1.124,   1.072e-4
1.125,   1.053e-4
1.126,   1.032e-4
1.127,   1.014e-4
1.128,   9.961e-5
1.129,   9.793e-5
1.130,   9.648e-5
1.131,   9.491e-5
1.132,   9.369e-5
1.133,   9.258e-5
1.134,   9.120e-5
1.135,   9.019e-5
1.136,   8.905e-5
1.137,   8.806e-5
1.138,   8.721e-5
1.139,   8.621e-5
1.140,   8.536e-5
1.141,   8.463e-5
1.142,   8.375e-5
1.143,   8.311e-5
1.144,   8.238e-5
1.145,   8.182e-5
1.146,   8.133e-5
1.147,   8.067e-5
1.148,   8.016e-5
1.149,   7.946e-5
1.150,   7.900e-5
1.151,   7.864e-5
1.152,   7.819e-5
1.153,   7.769e-5
1.154,   7.736e-5
1.155,   7.681e-5
1.156,   7.641e-5
1.157,   7.611e-5
1.158,   7.575e-5
1.159,   7.547e-5
1.160,   7.512e-5
1.161,   7.488e-5
1.162,   7.463e-5
1.163,   7.422e-5
1.164,   7.405e-5
1.165,   7.389e-5
1.166,   7.355e-5
1.167,   7.349e-5
1.168,   7.324e-5
1.169,   7.299e-5
1.170,   7.294e-5
1.171,   7.273e-5
1.172,   7.252e-5
1.173,   7.251e-5
1.174,   7.227e-5
1.175,   7.219e-5
1.176,   7.201e-5
1.177,   7.189e-5
1.178,   7.186e-5
1.179,   7.165e-5
1.180,   7.163e-5
1.181,   7.152e-5
1.182,   7.137e-5
1.183,   7.146e-5
1.184,   7.139e-5
1.185,   7.122e-5
1.186,   7.122e-5
1.187,   7.106e-5
1.188,   7.105e-5
1.189,   7.115e-5
1.190,   7.103e-5
1.191,   7.104e-5
1.192,   7.098e-5
1.193,   7.087e-5
1.194,   7.099e-5
1.195,   7.078e-5
1.196,   7.088e-5
1.197,   7.095e-5
1.198,   7.075e-5
1.199,   7.082e-5
1.200,   7.073e-5
1.201,   7.076e-5
1.202,   7.083e-5
1.203,   7.080e-5
1.204,   7.079e-5
1.205,   7.081e-5
1.206,   7.072e-5
1.207,   7.083e-5
1.208,   7.079e-5
1.209,   7.093e-5
1.210,   7.095e-5
1.211,   7.078e-5
1.212,   7.089e-5
1.213,   7.087e-5
1.214,   7.085e-5
1.215,   7.096e-5
1.216,   7.094e-5
1.217,   7.093e-5
1.218,   7.101e-5
1.219,   7.089e-5
1.220,   7.097e-5
1.221,   7.103e-5
1.222,   7.101e-5
1.223,   7.110e-5
1.224,   7.104e-5
1.225,   7.100e-5
1.226,   7.118e-5
1.227,   7.107e-5
1.228,   7.114e-5
1.229,   7.121e-5
1.230,   7.105e-5
1.231,   7.119e-5
1.232,   7.120e-5
1.233,   7.114e-5
1.234,   7.126e-5
1.235,   7.132e-5
1.236,   7.123e-5
1.237,   7.129e-5
1.238,   7.123e-5
1.239,   7.127e-5
1.240,   7.125e-5
1.241,   7.131e-5
1.242,   7.137e-5
1.243,   7.129e-5
1.244,   7.133e-5
1.245,   7.145e-5
1.246,   7.130e-5
1.247,   7.142e-5
1.248,   7.141e-5
1.249,   7.135e-5
1.250,   7.146e-5
1.251,   7.137e-5
1.252,   7.138e-5
1.253,   7.146e-5
1.254,   7.143e-5
1.255,   7.142e-5
1.256,   7.136e-5
1.257,   7.129e-5
1.258,   7.143e-5
1.259,   7.135e-5
1.260,   7.148e-5
1.261,   7.152e-5
1.262,   7.132e-5
1.263,   7.139e-5
1.264,   7.136e-5
1.265,   7.123e-5
1.266,   7.135e-5
1.267,   7.133e-5
1.268,   7.123e-5
1.269,   7.134e-5
1.270,   7.120e-5
1.271,   7.132e-5
1.272,   7.120e-5
1.273,   7.131e-5
1.274,   7.137e-5
1.275,   7.118e-5
1.276,   7.121e-5
1.277,   7.126e-5
1.278,   7.119e-5
1.279,   7.133e-5
1.280,   7.119e-5
1.281,   7.116e-5
1.282,   7.127e-5
1.283,   7.107e-5
1.284,   7.104e-5
1.285,   7.128e-5
1.286,   7.129e-5
1.287,   7.126e-5
1.288,   7.115e-5
1.289,   7.104e-5
1.290,   7.118e-5
1.291,   7.107e-5
1.292,   7.122e-5
1.293,   7.125e-5
1.294,   7.105e-5
1.295,   7.116e-5
1.296,   7.106e-5
1.297,   7.104e-5
1.298,   7.120e-5
1.299,   7.113e-5
1.300,   7.120e-5
1.301,   7.123e-5
1.302,   7.112e-5
1.303,   7.119e-5
1.304,   7.111e-5
1.305,   7.124e-5
1.306,   7.133e-5
1.307,   7.124e-5
1.308,   7.124e-5
1.309,   7.133e-5
1.310,   7.128e-5
1.311,   7.144e-5
1.312,   7.150e-5
1.313,   7.142e-5
1.314,   7.154e-5
1.315,   7.144e-5
1.316,   7.151e-5
1.317,   7.156e-5
1.318,   7.162e-5
1.319,   7.180e-5
1.320,   7.178e-5
1.321,   7.180e-5
1.322,   7.196e-5
1.323,   7.186e-5
1.324,   7.217e-5
1.325,   7.236e-5
1.326,   7.224e-5
1.327,   7.250e-5
1.328,   7.250e-5
1.329,   7.251e-5
1.330,   7.268e-5
1.331,   7.275e-5
1.332,   7.285e-5
1.333,   7.319e-5
1.334,   7.311e-5
1.335,   7.338e-5
1.336,   7.348e-5
1.337,   7.374e-5
1.338,   7.396e-5
1.339,   7.396e-5
1.340,   7.426e-5
1.341,   7.447e-5
1.342,   7.455e-5
1.343,   7.489e-5
1.344,   7.514e-5
1.345,   7.536e-5
1.346,   7.583e-5
1.347,   7.592e-5
1.348,   7.623e-5
1.349,   7.667e-5
1.350,   7.709e-5
1.351,   7.743e-5
1.352,   7.779e-5
1.353,   7.805e-5
1.354,   7.854e-5
1.355,   7.881e-5
1.356,   7.941e-5
1.357,   7.991e-5
1.358,   8.034e-5
1.359,   8.087e-5
1.360,   8.132e-5
1.361,   8.186e-5
1.362,   8.272e-5
1.363,   8.339e-5
1.364,   8.393e-5
1.365,   8.470e-5
1.366,   8.535e-5
1.367,   8.628e-5
1.368,   8.691e-5
1.369,   8.773e-5
1.370,   8.877e-5
1.371,   8.957e-5
1.372,   9.062e-5
1.373,   9.177e-5
1.374,   9.272e-5
1.375,   9.415e-5
1.376,   9.540e-5
1.377,   9.663e-5
1.378,   9.808e-5
1.379,   9.937e-5
1.380,   1.010e-4
1.381,   1.027e-4
1.382,   1.043e-4
1.383,   1.061e-4
1.384,   1.081e-4
1.385,   1.100e-4
1.386,   1.122e-4
1.387,   1.142e-4
1.388,   1.167e-4
1.389,   1.193e-4
1.390,   1.216e-4
1.391,   1.245e-4
1.392,   1.274e-4
1.393,   1.305e-4
1.394,   1.338e-4
1.395,   1.371e-4
1.396,   1.408e-4
1.397,   1.447e-4
1.398,   1.487e-4
1.399,   1.531e-4
1.400,   1.577e-4
1.401,   1.623e-4
1.402,   1.674e-4
1.403,   1.725e-4
1.404,   1.781e-4
1.405,   1.841e-4
1.406,   1.902e-4
1.407,   1.966e-4
1.408,   2.035e-4
1.409,   2.105e-4
1.410,   2.180e-4
1.411,   2.259e-4
1.412,   2.345e-4
1.413,   2.440e-4
1.414,   2.534e-4
1.415,   2.632e-4
1.416,   2.733e-4
1.417,   2.840e-4
1.418,   2.954e-4
1.419,   3.069e-4
1.420,   3.196e-4
1.421,   3.328e-4
1.422,   3.464e-4
1.423,   3.607e-4
1.424,   3.757e-4
1.425,   3.916e-4
1.426,   4.082e-4
1.427,   4.251e-4
1.428,   4.432e-4
1.429,   4.620e-4
1.430,   4.815e-4
1.431,   5.019e-4
1.432,   5.228e-4
1.433,   5.448e-4
1.434,   5.701e-4
1.435,   5.949e-4
1.436,   6.198e-4
1.437,   6.461e-4
1.438,   6.741e-4
1.439,   7.042e-4
1.440,   7.370e-4
1.441,   7.689e-4
1.442,   8.015e-4
1.443,   8.353e-4
1.444,   8.713e-4
1.445,   9.081e-4
1.446,   9.451e-4
1.447,   9.866e-4
1.448,   1.028e-3
1.449,   1.071e-3
1.450,   1.117e-3
1.451,   1.162e-3
1.452,   1.212e-3
1.453,   1.263e-3
1.454,   1.313e-3
1.455,   1.368e-3
1.456,   1.423e-3
1.457,   1.484e-3
1.458,   1.547e-3
1.459,   1.609e-3
1.460,   1.680e-3
1.461,   1.753e-3
1.462,   1.817e-3
1.463,   1.894e-3
1.464,   1.972e-3
1.465,   2.050e-3
1.466,   2.132e-3
1.467,   2.219e-3
1.468,   2.305e-3
1.469,   2.396e-3
1.470,   2.491e-3
1.471,   2.581e-3
1.472,   2.681e-3
1.473,   2.779e-3
1.474,   2.883e-3
1.475,   2.992e-3
1.476,   3.103e-3
1.477,   3.219e-3
1.478,   3.347e-3
1.479,   3.475e-3
1.480,   3.599e-3
1.481,   3.734e-3
1.482,   3.865e-3
1.483,   4.001e-3
1.484,   4.143e-3
1.485,   4.280e-3
1.486,   4.426e-3
1.487,   4.571e-3
1.488,   4.744e-3
1.489,   4.898e-3
1.490,   5.073e-3
1.491,   5.251e-3
1.492,   5.423e-3
1.493,   5.604e-3
1.494,   5.789e-3
1.495,   5.986e-3
1.496,   6.165e-3
1.497,   6.356e-3
1.498,   6.557e-3
1.499,   6.760e-3
1.500,   6.988e-3
1.501,   7.199e-3
1.502,   7.422e-3
1.503,   7.619e-3
1.504,   7.836e-3
1.505,   8.130e-3
1.506,   8.394e-3
1.507,   8.606e-3
1.508,   8.842e-3
1.509,   9.161e-3
1.510,   9.394e-3
1.511,   9.620e-3
1.512,   9.862e-3
1.513,   1.004e-2
1.514,   1.006e-2
1.515,   1.006e-2
1.516,   1.006e-2
1.517,   1.006e-2