File: Experimental Records and Raw Data/batch2/final400/B2_BEST_400#4_Full-202mV.txt
Jan. 14, 2023   14:08:21
Linear Sweep Voltammetry
File: d:\current work\al_oer\electrochemical test data\batch 2\400\B2_BEST_400#4_Full-202mV.txt
Data Source:  Experiment
Instrument Model:  CHI660E
Header:
Note:

Init E (V) = 1.098

Final E (V) = 1.597

Scan Rate (V/s) = 0.010
Sample Interval (V) = 0.001
Quiet Time (sec) = 2
Sensitivity (A/V) = 0.001
Comp R (ohm) = 6.4

Results:

Channel 1:
Ep = 1.266V
ip = 9.954e-3A
Ah = 3.531e-2C

Potential/V, Current/A
1.098,   2.489e-4
1.099,   2.562e-4
1.100,   2.423e-4
1.101,   2.254e-4
1.102,   2.106e-4
1.103,   2.002e-4
1.104,   1.951e-4
1.105,   1.845e-4
1.106,   1.735e-4
1.107,   1.705e-4
1.108,   1.674e-4
1.109,   1.568e-4
1.110,   1.558e-4
1.111,   1.533e-4
1.112,   1.444e-4
1.113,   1.468e-4
1.114,   1.407e-4
1.115,   1.375e-4
1.116,   1.398e-4
1.117,   1.302e-4
1.118,   1.358e-4
1.119,   1.274e-4
1.120,   1.320e-4
1.121,   1.232e-4
1.122,   1.291e-4
1.123,   1.196e-4
1.124,   1.260e-4
1.125,   1.191e-4
1.126,   1.200e-4
1.127,   1.204e-4
1.128,   1.151e-4
1.129,   1.202e-4
1.130,   1.168e-4
1.131,   1.125e-4
1.132,   1.180e-4
1.133,   1.142e-4
1.134,   1.111e-4
1.135,   1.129e-4
1.136,   1.152e-4
1.137,   1.109e-4
1.138,   1.094e-4
1.139,   1.100e-4
1.140,   1.120e-4
1.141,   1.125e-4
1.142,   1.107e-4
1.143,   1.082e-4
1.144,   1.081e-4
1.145,   1.084e-4
1.146,   1.085e-4
1.147,   1.084e-4
1.148,   1.085e-4
1.149,   1.080e-4
1.150,   1.078e-4
1.151,   1.075e-4
1.152,   1.068e-4
1.153,   1.072e-4
1.154,   1.062e-4
1.155,   1.066e-4
1.156,   1.040e-4
1.157,   1.063e-4
1.158,   1.054e-4
1.159,   1.062e-4
1.160,   1.089e-4
1.161,   1.069e-4
1.162,   1.061e-4
1.163,   1.058e-4
1.164,   1.018e-4
1.165,   1.046e-4
1.166,   1.087e-4
1.167,   1.078e-4
1.168,   1.026e-4
1.169,   1.025e-4
1.170,   1.081e-4
1.171,   1.073e-4
1.172,   1.016e-4
1.173,   1.053e-4
1.174,   1.090e-4
1.175,   1.015e-4
1.176,   1.048e-4
1.177,   1.097e-4
1.178,   9.965e-5
1.179,   1.082e-4
1.180,   1.065e-4
1.181,   9.951e-5
1.182,   1.112e-4
1.183,   1.008e-4
1.184,   1.094e-4
1.185,   1.011e-4
1.186,   1.084e-4
1.187,   1.039e-4
1.188,   1.058e-4
1.189,   1.036e-4
1.190,   1.055e-4
1.191,   1.041e-4
1.192,   1.091e-4
1.193,   1.013e-4
1.194,   1.098e-4
1.195,   9.857e-5
1.196,   1.110e-4
1.197,   1.044e-4
1.198,   1.027e-4
1.199,   1.105e-4
1.200,   1.009e-4
1.201,   1.086e-4
1.202,   1.094e-4
1.203,   9.913e-5
1.204,   1.068e-4
1.205,   1.105e-4
1.206,   1.032e-4
1.207,   1.013e-4
1.208,   1.115e-4
1.209,   1.069e-4
1.210,   1.009e-4
1.211,   1.058e-4
1.212,   1.096e-4
1.213,   1.096e-4
1.214,   1.036e-4
1.215,   1.026e-4
1.216,   1.052e-4
1.217,   1.106e-4
1.218,   1.076e-4
1.219,   1.072e-4
1.220,   1.035e-4
1.221,   1.053e-4
1.222,   1.049e-4
1.223,   1.072e-4
1.224,   1.059e-4
1.225,   1.106e-4
1.226,   1.077e-4
1.227,   1.086e-4
1.228,   1.073e-4
1.229,   1.100e-4
1.230,   1.046e-4
1.231,   1.044e-4
1.232,   1.079e-4
1.233,   1.067e-4
1.234,   1.075e-4
1.235,   1.073e-4
1.236,   1.075e-4
1.237,   1.093e-4
1.238,   1.070e-4
1.239,   1.088e-4
1.240,   1.063e-4
1.241,   1.097e-4
1.242,   1.063e-4
1.243,   1.053e-4
1.244,   1.064e-4
1.245,   1.044e-4
1.246,   1.068e-4
1.247,   1.096e-4
1.248,   1.094e-4
1.249,   1.105e-4
1.250,   1.091e-4
1.251,   1.122e-4
1.252,   1.012e-4
1.253,   1.091e-4
1.254,   1.031e-4
1.255,   1.125e-4
1.256,   1.108e-4
1.257,   1.135e-4
1.258,   1.020e-4
1.259,   1.063e-4
1.260,   1.093e-4
1.261,   1.167e-4
1.262,   1.086e-4
1.263,   1.012e-4
1.264,   1.097e-4
1.265,   1.134e-4
1.266,   1.110e-4
1.267,   1.000e-4
1.268,   1.153e-4
1.269,   1.140e-4
1.270,   9.880e-5
1.271,   1.138e-4
1.272,   1.146e-4
1.273,   1.003e-4
1.274,   1.171e-4
1.275,   1.084e-4
1.276,   1.063e-4
1.277,   1.135e-4
1.278,   1.047e-4
1.279,   1.156e-4
1.280,   1.064e-4
1.281,   1.022e-4
1.282,   1.234e-4
1.283,   1.022e-4
1.284,   1.137e-4
1.285,   1.043e-4
1.286,   1.139e-4
1.287,   1.158e-4
1.288,   1.009e-4
1.289,   1.179e-4
1.290,   1.033e-4
1.291,   1.203e-4
1.292,   9.913e-5
1.293,   1.175e-4
1.294,   1.006e-4
1.295,   1.211e-4
1.296,   1.044e-4
1.297,   1.187e-4
1.298,   1.025e-4
1.299,   1.186e-4
1.300,   1.007e-4
1.301,   1.175e-4
1.302,   1.058e-4
1.303,   1.218e-4
1.304,   1.038e-4
1.305,   1.156e-4
1.306,   1.048e-4
1.307,   1.110e-4
1.308,   1.173e-4
1.309,   1.033e-4
1.310,   1.258e-4
1.311,   1.024e-4
1.312,   1.223e-4
1.313,   1.084e-4
1.314,   1.106e-4
1.315,   1.199e-4
1.316,   1.011e-4
1.317,   1.180e-4
1.318,   1.125e-4
1.319,   1.073e-4
1.320,   1.232e-4
1.321,   1.091e-4
1.322,   1.071e-4
1.323,   1.246e-4
1.324,   1.109e-4
1.325,   1.060e-4
1.326,   1.219e-4
1.327,   1.141e-4
1.328,   1.060e-4
1.329,   1.214e-4
1.330,   1.260e-4
1.331,   1.118e-4
1.332,   1.087e-4
1.333,   1.253e-4
1.334,   1.196e-4
1.335,   1.053e-4
1.336,   1.114e-4
1.337,   1.208e-4
1.338,   1.235e-4
1.339,   1.121e-4
1.340,   1.121e-4
1.341,   1.218e-4
1.342,   1.272e-4
1.343,   1.243e-4
1.344,   1.141e-4
1.345,   1.080e-4
1.346,   1.183e-4
1.347,   1.250e-4
1.348,   1.308e-4
1.349,   1.242e-4
1.350,   1.164e-4
1.351,   1.243e-4
1.352,   1.271e-4
1.353,   1.223e-4
1.354,   1.169e-4
1.355,   1.213e-4
1.356,   1.273e-4
1.357,   1.251e-4
1.358,   1.197e-4
1.359,   1.336e-4
1.360,   1.304e-4
1.361,   1.221e-4
1.362,   1.364e-4
1.363,   1.343e-4
1.364,   1.252e-4
1.365,   1.394e-4
1.366,   1.361e-4
1.367,   1.362e-4
1.368,   1.465e-4
1.369,   1.375e-4
1.370,   1.437e-4
1.371,   1.411e-4
1.372,   1.376e-4
1.373,   1.434e-4
1.374,   1.430e-4
1.375,   1.612e-4
1.376,   1.564e-4
1.377,   1.648e-4
1.378,   1.493e-4
1.379,   1.611e-4
1.380,   1.625e-4
1.381,   1.805e-4
1.382,   1.788e-4
1.383,   1.723e-4
1.384,   1.799e-4
1.385,   1.938e-4
1.386,   2.050e-4
1.387,   1.896e-4
1.388,   2.117e-4
1.389,   2.301e-4
1.390,   2.115e-4
1.391,   2.287e-4
1.392,   2.583e-4
1.393,   2.403e-4
1.394,   2.615e-4
1.395,   2.904e-4
1.396,   2.699e-4
1.397,   3.060e-4
1.398,   3.200e-4
1.399,   3.249e-4
1.400,   3.596e-4
1.401,   3.489e-4
1.402,   4.023e-4
1.403,   3.943e-4
1.404,   4.351e-4
1.405,   4.382e-4
1.406,   4.837e-4
1.407,   4.967e-4
1.408,   5.309e-4
1.409,   5.529e-4
1.410,   5.954e-4
1.411,   6.125e-4
1.412,   6.675e-4
1.413,   6.827e-4
1.414,   7.484e-4
1.415,   7.622e-4
1.416,   8.347e-4
1.417,   8.512e-4
1.418,   9.222e-4
1.419,   9.585e-4
1.420,   1.008e-3
1.421,   1.086e-3
1.422,   1.119e-3
1.423,   1.204e-3
1.424,   1.249e-3
1.425,   1.315e-3
1.426,   1.409e-3
1.427,   1.448e-3
1.428,   1.555e-3
1.429,   1.628e-3
1.430,   1.694e-3
1.431,   1.811e-3
1.432,   1.881e-3
1.433,   1.971e-3
1.434,   2.093e-3
1.435,   2.175e-3
1.436,   2.279e-3
1.437,   2.419e-3
1.438,   2.512e-3
1.439,   2.636e-3
1.440,   2.794e-3
1.441,   2.913e-3
1.442,   3.026e-3
1.443,   3.189e-3
1.444,   3.357e-3
1.445,   3.498e-3
1.446,   3.653e-3
1.447,   3.830e-3
1.448,   4.030e-3
1.449,   4.251e-3
1.450,   4.534e-3
1.451,   4.804e-3
1.452,   5.078e-3
1.453,   5.396e-3
1.454,   5.742e-3
1.455,   6.101e-3
1.456,   6.477e-3
1.457,   6.885e-3
1.458,   7.347e-3
1.459,   7.906e-3
1.460,   8.482e-3
1.461,   9.210e-3
1.462,   1.004e-2
1.463,   1.006e-2
1.464,   1.006e-2
1.465,   1.006e-2
1.466,   1.006e-2
1.467,   1.006e-2
1.468,   1.006e-2
1.469,   1.006e-2
1.470,   1.006e-2
1.471,   1.006e-2
1.472,   1.006e-2
1.473,   1.006e-2
1.474,   1.006e-2
1.475,   1.006e-2
1.476,   1.006e-2
1.477,   1.006e-2
1.478,   1.006e-2
1.479,   1.006e-2
1.480,   1.006e-2
1.481,   1.006e-2
1.482,   1.006e-2
1.483,   1.006e-2
1.484,   1.006e-2
1.485,   1.006e-2
1.486,   1.006e-2
1.487,   1.006e-2
1.488,   1.006e-2
1.489,   1.006e-2
1.490,   1.006e-2
1.491,   1.006e-2
1.492,   1.006e-2
1.493,   1.006e-2
1.494,   1.006e-2
1.495,   1.006e-2
1.496,   1.006e-2
1.497,   1.006e-2
1.498,   1.006e-2
1.499,   1.006e-2
1.500,   1.006e-2
1.501,   1.006e-2
1.502,   1.006e-2
1.503,   1.006e-2
1.504,   1.006e-2
1.505,   1.006e-2
1.506,   1.006e-2
1.507,   1.006e-2
1.508,   1.006e-2
1.509,   1.006e-2
1.510,   1.006e-2
1.511,   1.006e-2
1.512,   1.006e-2
1.513,   1.006e-2
1.514,   1.006e-2
1.515,   1.006e-2
1.516,   1.006e-2
1.517,   1.006e-2
1.518,   1.006e-2
1.519,   1.006e-2
1.520,   1.006e-2
1.521,   1.006e-2
1.522,   1.006e-2
1.523,   1.006e-2
1.524,   1.006e-2
1.525,   1.006e-2
1.526,   1.006e-2
1.527,   1.006e-2
1.528,   1.006e-2
1.529,   1.006e-2
1.530,   1.006e-2
1.531,   1.006e-2
1.532,   1.006e-2
1.533,   1.006e-2
1.534,   1.006e-2
1.535,   1.006e-2
1.536,   1.006e-2
1.537,   1.006e-2
1.538,   1.006e-2
1.539,   1.006e-2
1.540,   1.006e-2
1.541,   1.006e-2
1.542,   1.006e-2
1.543,   1.006e-2
1.544,   1.006e-2
1.545,   1.006e-2
1.546,   1.006e-2
1.547,   1.006e-2
1.548,   1.006e-2
1.549,   1.006e-2
1.550,   1.006e-2
1.551,   1.006e-2
1.552,   1.006e-2
1.553,   1.006e-2
1.554,   1.006e-2
1.555,   1.006e-2
1.556,   1.006e-2
1.557,   1.006e-2
1.558,   1.006e-2
1.559,   1.006e-2
1.560,   1.006e-2
1.561,   1.006e-2
1.562,   1.006e-2
1.563,   1.006e-2
1.564,   1.006e-2
1.565,   1.006e-2
1.566,   1.006e-2
1.567,   1.006e-2
1.568,   1.006e-2
1.569,   1.006e-2
1.570,   1.006e-2
1.571,   1.006e-2
1.572,   1.006e-2
1.573,   1.006e-2
1.574,   1.006e-2
1.575,   1.006e-2
1.576,   1.006e-2
1.577,   1.006e-2
1.578,   1.006e-2
1.579,   1.006e-2
1.580,   1.006e-2
1.581,   1.006e-2
1.582,   1.006e-2
1.583,   1.006e-2
1.584,   1.006e-2
1.585,   1.006e-2
1.586,   1.006e-2
1.587,   1.006e-2
1.588,   1.006e-2
1.589,   1.006e-2
1.590,   1.006e-2
1.591,   1.006e-2
1.592,   1.006e-2
1.593,   1.006e-2
1.594,   1.006e-2
1.595,   1.006e-2
1.596,   1.006e-2
1.597,   1.006e-2