File: Experimental Records and Raw Data/batch2/final400/B2_BEST_400#15_High_Quality-296mV.txt
Jan. 18, 2023   14:53:32
Linear Sweep Voltammetry
File: d:\current work\al_oer\electrochemical test data\batch 2\400\B2_BEST_400#15_High_Quality-296mV.txt
Data Source:  Experiment
Instrument Model:  CHI660E
Header:
Note:

Init E (V) = 1.099

Final E (V) = 1.745

Scan Rate (V/s) = 0.010
Sample Interval (V) = 0.001
Quiet Time (sec) = 2
Sensitivity (A/V) = 0.001
Comp R (ohm) = 5.5

Results:

Channel 1:
Ep = 1.513V
ip = 6.290e-3A
Ah = 1.580e-1C

Potential/V, Current/A
1.099,   1.602e-4
1.100,   1.525e-4
1.101,   1.447e-4
1.102,   1.376e-4
1.103,   1.311e-4
1.104,   1.250e-4
1.105,   1.195e-4
1.106,   1.144e-4
1.107,   1.097e-4
1.108,   1.053e-4
1.109,   1.012e-4
1.110,   9.762e-5
1.111,   9.434e-5
1.112,   9.115e-5
1.113,   8.824e-5
1.114,   8.546e-5
1.115,   8.296e-5
1.116,   8.063e-5
1.117,   7.828e-5
1.118,   7.618e-5
1.119,   7.420e-5
1.120,   7.232e-5
1.121,   7.055e-5
1.122,   6.900e-5
1.123,   6.750e-5
1.124,   6.602e-5
1.125,   6.467e-5
1.126,   6.336e-5
1.127,   6.218e-5
1.128,   6.104e-5
1.129,   5.997e-5
1.130,   5.895e-5
1.131,   5.795e-5
1.132,   5.702e-5
1.133,   5.620e-5
1.134,   5.536e-5
1.135,   5.454e-5
1.136,   5.376e-5
1.137,   5.307e-5
1.138,   5.241e-5
1.139,   5.177e-5
1.140,   5.119e-5
1.141,   5.050e-5
1.142,   4.997e-5
1.143,   4.945e-5
1.144,   4.884e-5
1.145,   4.832e-5
1.146,   4.788e-5
1.147,   4.740e-5
1.148,   4.704e-5
1.149,   4.662e-5
1.150,   4.616e-5
1.151,   4.576e-5
1.152,   4.543e-5
1.153,   4.507e-5
1.154,   4.472e-5
1.155,   4.444e-5
1.156,   4.414e-5
1.157,   4.388e-5
1.158,   4.358e-5
1.159,   4.329e-5
1.160,   4.303e-5
1.161,   4.273e-5
1.162,   4.251e-5
1.163,   4.231e-5
1.164,   4.208e-5
1.165,   4.186e-5
1.166,   4.161e-5
1.167,   4.145e-5
1.168,   4.124e-5
1.169,   4.111e-5
1.170,   4.093e-5
1.171,   4.077e-5
1.172,   4.057e-5
1.173,   4.047e-5
1.174,   4.029e-5
1.175,   4.020e-5
1.176,   4.004e-5
1.177,   3.993e-5
1.178,   3.980e-5
1.179,   3.964e-5
1.180,   3.951e-5
1.181,   3.945e-5
1.182,   3.935e-5
1.183,   3.924e-5
1.184,   3.918e-5
1.185,   3.910e-5
1.186,   3.900e-5
1.187,   3.890e-5
1.188,   3.882e-5
1.189,   3.878e-5
1.190,   3.864e-5
1.191,   3.861e-5
1.192,   3.848e-5
1.193,   3.845e-5
1.194,   3.846e-5
1.195,   3.840e-5
1.196,   3.835e-5
1.197,   3.834e-5
1.198,   3.831e-5
1.199,   3.825e-5
1.200,   3.819e-5
1.201,   3.815e-5
1.202,   3.808e-5
1.203,   3.802e-5
1.204,   3.804e-5
1.205,   3.801e-5
1.206,   3.800e-5
1.207,   3.796e-5
1.208,   3.793e-5
1.209,   3.793e-5
1.210,   3.794e-5
1.211,   3.793e-5
1.212,   3.792e-5
1.213,   3.789e-5
1.214,   3.786e-5
1.215,   3.793e-5
1.216,   3.794e-5
1.217,   3.787e-5
1.218,   3.787e-5
1.219,   3.788e-5
1.220,   3.790e-5
1.221,   3.788e-5
1.222,   3.794e-5
1.223,   3.797e-5
1.224,   3.797e-5
1.225,   3.795e-5
1.226,   3.795e-5
1.227,   3.796e-5
1.228,   3.798e-5
1.229,   3.802e-5
1.230,   3.805e-5
1.231,   3.810e-5
1.232,   3.808e-5
1.233,   3.807e-5
1.234,   3.811e-5
1.235,   3.818e-5
1.236,   3.819e-5
1.237,   3.822e-5
1.238,   3.824e-5
1.239,   3.831e-5
1.240,   3.831e-5
1.241,   3.840e-5
1.242,   3.844e-5
1.243,   3.846e-5
1.244,   3.854e-5
1.245,   3.859e-5
1.246,   3.863e-5
1.247,   3.864e-5
1.248,   3.872e-5
1.249,   3.873e-5
1.250,   3.882e-5
1.251,   3.881e-5
1.252,   3.884e-5
1.253,   3.889e-5
1.254,   3.897e-5
1.255,   3.903e-5
1.256,   3.907e-5
1.257,   3.910e-5
1.258,   3.917e-5
1.259,   3.923e-5
1.260,   3.927e-5
1.261,   3.933e-5
1.262,   3.936e-5
1.263,   3.946e-5
1.264,   3.946e-5
1.265,   3.946e-5
1.266,   3.951e-5
1.267,   3.956e-5
1.268,   3.966e-5
1.269,   3.972e-5
1.270,   3.979e-5
1.271,   3.980e-5
1.272,   3.987e-5
1.273,   3.995e-5
1.274,   4.009e-5
1.275,   4.009e-5
1.276,   4.015e-5
1.277,   4.023e-5
1.278,   4.022e-5
1.279,   4.031e-5
1.280,   4.038e-5
1.281,   4.045e-5
1.282,   4.053e-5
1.283,   4.060e-5
1.284,   4.066e-5
1.285,   4.070e-5
1.286,   4.077e-5
1.287,   4.089e-5
1.288,   4.096e-5
1.289,   4.103e-5
1.290,   4.104e-5
1.291,   4.109e-5
1.292,   4.121e-5
1.293,   4.125e-5
1.294,   4.132e-5
1.295,   4.148e-5
1.296,   4.154e-5
1.297,   4.159e-5
1.298,   4.168e-5
1.299,   4.172e-5
1.300,   4.182e-5
1.301,   4.194e-5
1.302,   4.202e-5
1.303,   4.208e-5
1.304,   4.218e-5
1.305,   4.291e-5
1.306,   4.365e-5
1.307,   4.312e-5
1.308,   4.296e-5
1.309,   4.293e-5
1.310,   4.293e-5
1.311,   4.300e-5
1.312,   4.316e-5
1.313,   4.326e-5
1.314,   4.337e-5
1.315,   4.342e-5
1.316,   4.354e-5
1.317,   4.365e-5
1.318,   4.382e-5
1.319,   4.391e-5
1.320,   4.401e-5
1.321,   4.412e-5
1.322,   4.429e-5
1.323,   4.438e-5
1.324,   4.453e-5
1.325,   4.473e-5
1.326,   4.484e-5
1.327,   4.500e-5
1.328,   4.511e-5
1.329,   4.530e-5
1.330,   4.554e-5
1.331,   4.562e-5
1.332,   4.585e-5
1.333,   4.604e-5
1.334,   4.622e-5
1.335,   4.643e-5
1.336,   4.661e-5
1.337,   4.684e-5
1.338,   4.710e-5
1.339,   4.733e-5
1.340,   4.754e-5
1.341,   4.782e-5
1.342,   4.806e-5
1.343,   4.834e-5
1.344,   4.860e-5
1.345,   4.885e-5
1.346,   4.912e-5
1.347,   4.941e-5
1.348,   4.972e-5
1.349,   5.006e-5
1.350,   5.033e-5
1.351,   5.068e-5
1.352,   5.100e-5
1.353,   5.131e-5
1.354,   5.172e-5
1.355,   5.195e-5
1.356,   5.235e-5
1.357,   5.271e-5
1.358,   5.301e-5
1.359,   5.343e-5
1.360,   5.379e-5
1.361,   5.414e-5
1.362,   5.456e-5
1.363,   5.502e-5
1.364,   5.539e-5
1.365,   5.585e-5
1.366,   5.627e-5
1.367,   5.674e-5
1.368,   5.724e-5
1.369,   5.770e-5
1.370,   5.815e-5
1.371,   5.860e-5
1.372,   5.908e-5
1.373,   5.961e-5
1.374,   6.013e-5
1.375,   6.064e-5
1.376,   6.120e-5
1.377,   6.168e-5
1.378,   6.223e-5
1.379,   6.281e-5
1.380,   6.343e-5
1.381,   6.388e-5
1.382,   6.440e-5
1.383,   6.502e-5
1.384,   6.560e-5
1.385,   6.620e-5
1.386,   6.680e-5
1.387,   6.743e-5
1.388,   6.816e-5
1.389,   6.895e-5
1.390,   6.957e-5
1.391,   7.028e-5
1.392,   7.105e-5
1.393,   7.180e-5
1.394,   7.254e-5
1.395,   7.339e-5
1.396,   7.420e-5
1.397,   7.511e-5
1.398,   7.601e-5
1.399,   7.693e-5
1.400,   7.782e-5
1.401,   7.887e-5
1.402,   7.993e-5
1.403,   8.097e-5
1.404,   8.208e-5
1.405,   8.325e-5
1.406,   8.443e-5
1.407,   8.566e-5
1.408,   8.689e-5
1.409,   8.821e-5
1.410,   8.963e-5
1.411,   9.107e-5
1.412,   9.263e-5
1.413,   9.427e-5
1.414,   9.581e-5
1.415,   9.760e-5
1.416,   9.934e-5
1.417,   1.012e-4
1.418,   1.033e-4
1.419,   1.052e-4
1.420,   1.072e-4
1.421,   1.095e-4
1.422,   1.119e-4
1.423,   1.144e-4
1.424,   1.170e-4
1.425,   1.196e-4
1.426,   1.224e-4
1.427,   1.253e-4
1.428,   1.283e-4
1.429,   1.315e-4
1.430,   1.348e-4
1.431,   1.382e-4
1.432,   1.418e-4
1.433,   1.455e-4
1.434,   1.495e-4
1.435,   1.534e-4
1.436,   1.576e-4
1.437,   1.620e-4
1.438,   1.666e-4
1.439,   1.714e-4
1.440,   1.762e-4
1.441,   1.814e-4
1.442,   1.867e-4
1.443,   1.922e-4
1.444,   1.978e-4
1.445,   2.036e-4
1.446,   2.099e-4
1.447,   2.162e-4
1.448,   2.227e-4
1.449,   2.294e-4
1.450,   2.365e-4
1.451,   2.438e-4
1.452,   2.514e-4
1.453,   2.594e-4
1.454,   2.676e-4
1.455,   2.759e-4
1.456,   2.846e-4
1.457,   2.935e-4
1.458,   3.028e-4
1.459,   3.125e-4
1.460,   3.225e-4
1.461,   3.328e-4
1.462,   3.432e-4
1.463,   3.540e-4
1.464,   3.651e-4
1.465,   3.768e-4
1.466,   3.887e-4
1.467,   4.010e-4
1.468,   4.135e-4
1.469,   4.264e-4
1.470,   4.396e-4
1.471,   4.534e-4
1.472,   4.675e-4
1.473,   4.819e-4
1.474,   4.966e-4
1.475,   5.121e-4
1.476,   5.280e-4
1.477,   5.442e-4
1.478,   5.608e-4
1.479,   5.778e-4
1.480,   5.955e-4
1.481,   6.136e-4
1.482,   6.321e-4
1.483,   6.507e-4
1.484,   6.701e-4
1.485,   6.898e-4
1.486,   7.103e-4
1.487,   7.313e-4
1.488,   7.528e-4
1.489,   7.747e-4
1.490,   7.968e-4
1.491,   8.196e-4
1.492,   8.427e-4
1.493,   8.669e-4
1.494,   8.916e-4
1.495,   9.167e-4
1.496,   9.417e-4
1.497,   9.676e-4
1.498,   9.938e-4
1.499,   1.020e-3
1.500,   1.047e-3
1.501,   1.075e-3
1.502,   1.103e-3
1.503,   1.132e-3
1.504,   1.162e-3
1.505,   1.192e-3
1.506,   1.222e-3
1.507,   1.253e-3
1.508,   1.284e-3
1.509,   1.315e-3
1.510,   1.347e-3
1.511,   1.380e-3
1.512,   1.413e-3
1.513,   1.446e-3
1.514,   1.478e-3
1.515,   1.512e-3
1.516,   1.548e-3
1.517,   1.584e-3
1.518,   1.620e-3
1.519,   1.655e-3
1.520,   1.690e-3
1.521,   1.726e-3
1.522,   1.763e-3
1.523,   1.801e-3
1.524,   1.839e-3
1.525,   1.878e-3
1.526,   1.916e-3
1.527,   1.954e-3
1.528,   1.993e-3
1.529,   2.032e-3
1.530,   2.071e-3
1.531,   2.110e-3
1.532,   2.149e-3
1.533,   2.190e-3
1.534,   2.231e-3
1.535,   2.272e-3
1.536,   2.317e-3
1.537,   2.379e-3
1.538,   2.426e-3
1.539,   2.469e-3
1.540,   2.511e-3
1.541,   2.552e-3
1.542,   2.593e-3
1.543,   2.636e-3
1.544,   2.677e-3
1.545,   2.720e-3
1.546,   2.764e-3
1.547,   2.806e-3
1.548,   2.849e-3
1.549,   2.893e-3
1.550,   2.936e-3
1.551,   2.981e-3
1.552,   3.025e-3
1.553,   3.071e-3
1.554,   3.118e-3
1.555,   3.163e-3
1.556,   3.206e-3
1.557,   3.250e-3
1.558,   3.295e-3
1.559,   3.341e-3
1.560,   3.385e-3
1.561,   3.430e-3
1.562,   3.479e-3
1.563,   3.533e-3
1.564,   3.578e-3
1.565,   3.623e-3
1.566,   3.670e-3
1.567,   3.717e-3
1.568,   3.761e-3
1.569,   3.809e-3
1.570,   3.855e-3
1.571,   3.899e-3
1.572,   3.943e-3
1.573,   3.988e-3
1.574,   4.039e-3
1.575,   4.088e-3
1.576,   4.140e-3
1.577,   4.183e-3
1.578,   4.228e-3
1.579,   4.272e-3
1.580,   4.320e-3
1.581,   4.368e-3
1.582,   4.415e-3
1.583,   4.461e-3
1.584,   4.514e-3
1.585,   4.565e-3
1.586,   4.612e-3
1.587,   4.660e-3
1.588,   4.723e-3
1.589,   4.792e-3
1.590,   4.901e-3
1.591,   4.990e-3
1.592,   5.035e-3
1.593,   5.079e-3
1.594,   5.123e-3
1.595,   5.160e-3
1.596,   5.209e-3
1.597,   5.263e-3
1.598,   5.304e-3
1.599,   5.373e-3
1.600,   5.433e-3
1.601,   5.477e-3
1.602,   5.524e-3
1.603,   5.576e-3
1.604,   5.626e-3
1.605,   5.663e-3
1.606,   5.707e-3
1.607,   5.769e-3
1.608,   5.822e-3
1.609,   5.868e-3
1.610,   5.915e-3
1.611,   5.961e-3
1.612,   6.007e-3
1.613,   6.041e-3
1.614,   6.101e-3
1.615,   6.165e-3
1.616,   6.200e-3
1.617,   6.265e-3
1.618,   6.324e-3
1.619,   6.365e-3
1.620,   6.420e-3
1.621,   6.485e-3
1.622,   6.529e-3
1.623,   6.575e-3
1.624,   6.625e-3
1.625,   6.670e-3
1.626,   6.713e-3
1.627,   6.769e-3
1.628,   6.809e-3
1.629,   6.893e-3
1.630,   6.936e-3
1.631,   6.972e-3
1.632,   7.034e-3
1.633,   7.085e-3
1.634,   7.130e-3
1.635,   7.172e-3
1.636,   7.221e-3
1.637,   7.257e-3
1.638,   7.285e-3
1.639,   7.334e-3
1.640,   7.401e-3
1.641,   7.453e-3
1.642,   7.491e-3
1.643,   7.520e-3
1.644,   7.558e-3
1.645,   7.612e-3
1.646,   7.666e-3
1.647,   7.691e-3
1.648,   7.732e-3
1.649,   7.772e-3
1.650,   7.805e-3
1.651,   7.833e-3
1.652,   7.850e-3
1.653,   7.890e-3
1.654,   8.010e-3
1.655,   8.095e-3
1.656,   8.120e-3
1.657,   8.211e-3
1.658,   8.271e-3
1.659,   8.283e-3
1.660,   8.313e-3
1.661,   8.320e-3
1.662,   8.320e-3
1.663,   8.333e-3
1.664,   8.374e-3
1.665,   8.402e-3
1.666,   8.489e-3
1.667,   8.499e-3
1.668,   8.502e-3
1.669,   8.524e-3
1.670,   8.571e-3
1.671,   8.603e-3
1.672,   8.607e-3
1.673,   8.620e-3
1.674,   8.625e-3
1.675,   8.636e-3
1.676,   8.684e-3
1.677,   8.688e-3
1.678,   8.713e-3
1.679,   8.838e-3
1.680,   8.931e-3
1.681,   8.910e-3
1.682,   8.921e-3
1.683,   8.943e-3
1.684,   8.993e-3
1.685,   8.991e-3
1.686,   8.995e-3
1.687,   8.985e-3
1.688,   9.006e-3
1.689,   9.003e-3
1.690,   9.010e-3
1.691,   9.021e-3
1.692,   9.054e-3
1.693,   9.082e-3
1.694,   9.074e-3
1.695,   9.061e-3
1.696,   9.087e-3
1.697,   9.158e-3
1.698,   9.135e-3
1.699,   9.121e-3
1.700,   9.115e-3
1.701,   9.063e-3
1.702,   9.057e-3
1.703,   9.054e-3
1.704,   9.041e-3
1.705,   9.043e-3
1.706,   9.087e-3
1.707,   9.109e-3
1.708,   9.081e-3
1.709,   9.086e-3
1.710,   9.178e-3
1.711,   9.196e-3
1.712,   9.178e-3
1.713,   9.145e-3
1.714,   9.144e-3
1.715,   9.121e-3
1.716,   9.131e-3
1.717,   9.146e-3
1.718,   9.112e-3
1.719,   9.063e-3
1.720,   9.066e-3
1.721,   9.077e-3
1.722,   9.044e-3
1.723,   9.047e-3
1.724,   9.077e-3
1.725,   9.041e-3
1.726,   9.037e-3
1.727,   9.073e-3
1.728,   9.056e-3
1.729,   9.009e-3
1.730,   8.970e-3
1.731,   8.985e-3
1.732,   8.947e-3
1.733,   9.013e-3
1.734,   9.015e-3
1.735,   8.993e-3
1.736,   8.972e-3
1.737,   8.921e-3
1.738,   8.916e-3
1.739,   8.883e-3
1.740,   8.867e-3
1.741,   8.897e-3
1.742,   8.846e-3
1.743,   8.791e-3
1.744,   8.805e-3
1.745,   8.794e-3