File: Experimental Records and Raw Data/batch2/final400/B2_BEST_400#14_High_Quality-218mV.txt
Jan. 14, 2023   14:48:19
Linear Sweep Voltammetry
File: d:\current work\al_oer\electrochemical test data\batch 2\400\B2_BEST_400#14_High_Quality-218mV.txt
Data Source:  Experiment
Instrument Model:  CHI660E
Header:
Note:

Init E (V) = 1.099

Final E (V) = 1.537

Scan Rate (V/s) = 0.010
Sample Interval (V) = 0.001
Quiet Time (sec) = 2
Sensitivity (A/V) = 0.001
Comp R (ohm) = 5.6

Results:

Channel 1:

Potential/V, Current/A
1.099,   9.270e-4
1.100,   8.643e-4
1.101,   8.068e-4
1.102,   7.561e-4
1.103,   7.109e-4
1.104,   6.699e-4
1.105,   6.331e-4
1.106,   5.999e-4
1.107,   5.688e-4
1.108,   5.412e-4
1.109,   5.156e-4
1.110,   4.924e-4
1.111,   4.711e-4
1.112,   4.518e-4
1.113,   4.338e-4
1.114,   4.169e-4
1.115,   4.012e-4
1.116,   3.870e-4
1.117,   3.739e-4
1.118,   3.614e-4
1.119,   3.505e-4
1.120,   3.401e-4
1.121,   3.300e-4
1.122,   3.205e-4
1.123,   3.117e-4
1.124,   3.035e-4
1.125,   2.956e-4
1.126,   2.884e-4
1.127,   2.818e-4
1.128,   2.752e-4
1.129,   2.688e-4
1.130,   2.629e-4
1.131,   2.572e-4
1.132,   2.522e-4
1.133,   2.475e-4
1.134,   2.429e-4
1.135,   2.388e-4
1.136,   2.348e-4
1.137,   2.306e-4
1.138,   2.268e-4
1.139,   2.231e-4
1.140,   2.200e-4
1.141,   2.167e-4
1.142,   2.135e-4
1.143,   2.106e-4
1.144,   2.078e-4
1.145,   2.051e-4
1.146,   2.026e-4
1.147,   2.002e-4
1.148,   1.980e-4
1.149,   1.957e-4
1.150,   1.936e-4
1.151,   1.915e-4
1.152,   1.894e-4
1.153,   1.875e-4
1.154,   1.857e-4
1.155,   1.839e-4
1.156,   1.825e-4
1.157,   1.809e-4
1.158,   1.793e-4
1.159,   1.781e-4
1.160,   1.764e-4
1.161,   1.749e-4
1.162,   1.738e-4
1.163,   1.725e-4
1.164,   1.716e-4
1.165,   1.704e-4
1.166,   1.694e-4
1.167,   1.683e-4
1.168,   1.673e-4
1.169,   1.664e-4
1.170,   1.655e-4
1.171,   1.647e-4
1.172,   1.640e-4
1.173,   1.632e-4
1.174,   1.622e-4
1.175,   1.616e-4
1.176,   1.608e-4
1.177,   1.600e-4
1.178,   1.595e-4
1.179,   1.587e-4
1.180,   1.582e-4
1.181,   1.576e-4
1.182,   1.572e-4
1.183,   1.568e-4
1.184,   1.562e-4
1.185,   1.558e-4
1.186,   1.555e-4
1.187,   1.551e-4
1.188,   1.547e-4
1.189,   1.541e-4
1.190,   1.538e-4
1.191,   1.537e-4
1.192,   1.531e-4
1.193,   1.525e-4
1.194,   1.521e-4
1.195,   1.515e-4
1.196,   1.513e-4
1.197,   1.510e-4
1.198,   1.506e-4
1.199,   1.505e-4
1.200,   1.500e-4
1.201,   1.498e-4
1.202,   1.497e-4
1.203,   1.495e-4
1.204,   1.492e-4
1.205,   1.488e-4
1.206,   1.485e-4
1.207,   1.485e-4
1.208,   1.483e-4
1.209,   1.482e-4
1.210,   1.480e-4
1.211,   1.477e-4
1.212,   1.475e-4
1.213,   1.476e-4
1.214,   1.473e-4
1.215,   1.471e-4
1.216,   1.470e-4
1.217,   1.468e-4
1.218,   1.469e-4
1.219,   1.468e-4
1.220,   1.467e-4
1.221,   1.467e-4
1.222,   1.465e-4
1.223,   1.463e-4
1.224,   1.463e-4
1.225,   1.463e-4
1.226,   1.464e-4
1.227,   1.462e-4
1.228,   1.463e-4
1.229,   1.462e-4
1.230,   1.460e-4
1.231,   1.460e-4
1.232,   1.459e-4
1.233,   1.459e-4
1.234,   1.458e-4
1.235,   1.458e-4
1.236,   1.458e-4
1.237,   1.459e-4
1.238,   1.458e-4
1.239,   1.458e-4
1.240,   1.458e-4
1.241,   1.458e-4
1.242,   1.458e-4
1.243,   1.455e-4
1.244,   1.456e-4
1.245,   1.457e-4
1.246,   1.456e-4
1.247,   1.458e-4
1.248,   1.457e-4
1.249,   1.456e-4
1.250,   1.458e-4
1.251,   1.457e-4
1.252,   1.457e-4
1.253,   1.458e-4
1.254,   1.458e-4
1.255,   1.459e-4
1.256,   1.459e-4
1.257,   1.459e-4
1.258,   1.460e-4
1.259,   1.458e-4
1.260,   1.460e-4
1.261,   1.460e-4
1.262,   1.458e-4
1.263,   1.459e-4
1.264,   1.459e-4
1.265,   1.459e-4
1.266,   1.460e-4
1.267,   1.460e-4
1.268,   1.462e-4
1.269,   1.462e-4
1.270,   1.460e-4
1.271,   1.463e-4
1.272,   1.462e-4
1.273,   1.464e-4
1.274,   1.466e-4
1.275,   1.463e-4
1.276,   1.465e-4
1.277,   1.466e-4
1.278,   1.465e-4
1.279,   1.466e-4
1.280,   1.469e-4
1.281,   1.468e-4
1.282,   1.469e-4
1.283,   1.469e-4
1.284,   1.469e-4
1.285,   1.470e-4
1.286,   1.470e-4
1.287,   1.473e-4
1.288,   1.472e-4
1.289,   1.473e-4
1.290,   1.474e-4
1.291,   1.473e-4
1.292,   1.474e-4
1.293,   1.476e-4
1.294,   1.476e-4
1.295,   1.478e-4
1.296,   1.478e-4
1.297,   1.479e-4
1.298,   1.481e-4
1.299,   1.482e-4
1.300,   1.483e-4
1.301,   1.483e-4
1.302,   1.484e-4
1.303,   1.484e-4
1.304,   1.483e-4
1.305,   1.486e-4
1.306,   1.488e-4
1.307,   1.487e-4
1.308,   1.489e-4
1.309,   1.491e-4
1.310,   1.492e-4
1.311,   1.495e-4
1.312,   1.496e-4
1.313,   1.497e-4
1.314,   1.500e-4
1.315,   1.499e-4
1.316,   1.502e-4
1.317,   1.504e-4
1.318,   1.504e-4
1.319,   1.508e-4
1.320,   1.509e-4
1.321,   1.511e-4
1.322,   1.515e-4
1.323,   1.514e-4
1.324,   1.518e-4
1.325,   1.522e-4
1.326,   1.521e-4
1.327,   1.524e-4
1.328,   1.527e-4
1.329,   1.529e-4
1.330,   1.531e-4
1.331,   1.532e-4
1.332,   1.536e-4
1.333,   1.540e-4
1.334,   1.542e-4
1.335,   1.544e-4
1.336,   1.546e-4
1.337,   1.550e-4
1.338,   1.556e-4
1.339,   1.556e-4
1.340,   1.560e-4
1.341,   1.565e-4
1.342,   1.566e-4
1.343,   1.570e-4
1.344,   1.573e-4
1.345,   1.577e-4
1.346,   1.583e-4
1.347,   1.585e-4
1.348,   1.591e-4
1.349,   1.596e-4
1.350,   1.602e-4
1.351,   1.608e-4
1.352,   1.613e-4
1.353,   1.620e-4
1.354,   1.628e-4
1.355,   1.632e-4
1.356,   1.641e-4
1.357,   1.650e-4
1.358,   1.658e-4
1.359,   1.667e-4
1.360,   1.675e-4
1.361,   1.687e-4
1.362,   1.696e-4
1.363,   1.708e-4
1.364,   1.719e-4
1.365,   1.730e-4
1.366,   1.743e-4
1.367,   1.758e-4
1.368,   1.772e-4
1.369,   1.789e-4
1.370,   1.808e-4
1.371,   1.824e-4
1.372,   1.845e-4
1.373,   1.866e-4
1.374,   1.888e-4
1.375,   1.913e-4
1.376,   1.941e-4
1.377,   1.967e-4
1.378,   1.994e-4
1.379,   2.022e-4
1.380,   2.056e-4
1.381,   2.091e-4
1.382,   2.129e-4
1.383,   2.169e-4
1.384,   2.210e-4
1.385,   2.254e-4
1.386,   2.303e-4
1.387,   2.352e-4
1.388,   2.407e-4
1.389,   2.466e-4
1.390,   2.526e-4
1.391,   2.594e-4
1.392,   2.664e-4
1.393,   2.738e-4
1.394,   2.818e-4
1.395,   2.897e-4
1.396,   2.987e-4
1.397,   3.080e-4
1.398,   3.177e-4
1.399,   3.280e-4
1.400,   3.385e-4
1.401,   3.498e-4
1.402,   3.617e-4
1.403,   3.741e-4
1.404,   3.878e-4
1.405,   4.018e-4
1.406,   4.162e-4
1.407,   4.316e-4
1.408,   4.474e-4
1.409,   4.643e-4
1.410,   4.819e-4
1.411,   5.001e-4
1.412,   5.192e-4
1.413,   5.391e-4
1.414,   5.601e-4
1.415,   5.816e-4
1.416,   6.039e-4
1.417,   6.272e-4
1.418,   6.517e-4
1.419,   6.763e-4
1.420,   7.025e-4
1.421,   7.287e-4
1.422,   7.568e-4
1.423,   7.859e-4
1.424,   8.157e-4
1.425,   8.463e-4
1.426,   8.784e-4
1.427,   9.099e-4
1.428,   9.454e-4
1.429,   9.815e-4
1.430,   1.018e-3
1.431,   1.056e-3
1.432,   1.095e-3
1.433,   1.134e-3
1.434,   1.176e-3
1.435,   1.219e-3
1.436,   1.262e-3
1.437,   1.307e-3
1.438,   1.352e-3
1.439,   1.401e-3
1.440,   1.450e-3
1.441,   1.503e-3
1.442,   1.553e-3
1.443,   1.606e-3
1.444,   1.663e-3
1.445,   1.717e-3
1.446,   1.775e-3
1.447,   1.833e-3
1.448,   1.890e-3
1.449,   1.950e-3
1.450,   2.012e-3
1.451,   2.075e-3
1.452,   2.139e-3
1.453,   2.204e-3
1.454,   2.274e-3
1.455,   2.343e-3
1.456,   2.412e-3
1.457,   2.484e-3
1.458,   2.557e-3
1.459,   2.629e-3
1.460,   2.707e-3
1.461,   2.774e-3
1.462,   2.851e-3
1.463,   2.931e-3
1.464,   3.011e-3
1.465,   3.093e-3
1.466,   3.175e-3
1.467,   3.258e-3
1.468,   3.342e-3
1.469,   3.432e-3
1.470,   3.519e-3
1.471,   3.606e-3
1.472,   3.693e-3
1.473,   3.785e-3
1.474,   3.876e-3
1.475,   3.967e-3
1.476,   4.064e-3
1.477,   4.156e-3
1.478,   4.272e-3
1.479,   4.385e-3
1.480,   4.477e-3
1.481,   4.568e-3
1.482,   4.667e-3
1.483,   4.773e-3
1.484,   4.871e-3
1.485,   4.967e-3
1.486,   5.065e-3
1.487,   5.165e-3
1.488,   5.264e-3
1.489,   5.410e-3
1.490,   5.532e-3
1.491,   5.627e-3
1.492,   5.721e-3
1.493,   5.812e-3
1.494,   5.903e-3
1.495,   5.999e-3
1.496,   6.091e-3
1.497,   6.197e-3
1.498,   6.401e-3
1.499,   6.606e-3
1.500,   6.728e-3
1.501,   6.815e-3
1.502,   6.897e-3
1.503,   6.979e-3
1.504,   7.069e-3
1.505,   7.164e-3
1.506,   7.308e-3
1.507,   7.430e-3
1.508,   7.515e-3
1.509,   7.591e-3
1.510,   7.668e-3
1.511,   7.747e-3
1.512,   7.818e-3
1.513,   7.892e-3
1.514,   7.977e-3
1.515,   8.081e-3
1.516,   8.412e-3
1.517,   8.561e-3
1.518,   8.618e-3
1.519,   8.725e-3
1.520,   8.863e-3
1.521,   8.933e-3
1.522,   8.989e-3
1.523,   9.038e-3
1.524,   9.080e-3
1.525,   9.141e-3
1.526,   9.217e-3
1.527,   9.262e-3
1.528,   9.316e-3
1.529,   9.409e-3
1.530,   9.478e-3
1.531,   9.508e-3
1.532,   9.554e-3
1.533,   9.874e-3
1.534,   1.001e-2
1.535,   1.004e-2
1.536,   1.004e-2
1.537,   1.006e-2