File: Experimental Records and Raw Data/batch2/final400/B2_BEST_400#20_High_Quality-274mV.txt
Jan. 14, 2023   13:57:20
Linear Sweep Voltammetry
File: d:\current work\al_oer\electrochemical test data\batch 2\400\B2_BEST_400#20_High_Quality-274mV.txt
Data Source:  Experiment
Instrument Model:  CHI660E
Header:
Note:

Init E (V) = 1.101

Final E (V) = 1.600

Scan Rate (V/s) = 0.010
Sample Interval (V) = 0.001
Quiet Time (sec) = 2
Sensitivity (A/V) = 0.001
Comp R (ohm) = 5.8

Results:

Channel 1:

Potential/V, Current/A
1.101,   1.586e-4
1.102,   1.496e-4
1.103,   1.397e-4
1.104,   1.306e-4
1.105,   1.225e-4
1.106,   1.153e-4
1.107,   1.090e-4
1.108,   1.034e-4
1.109,   9.820e-5
1.110,   9.364e-5
1.111,   8.961e-5
1.112,   8.579e-5
1.113,   8.239e-5
1.114,   7.928e-5
1.115,   7.645e-5
1.116,   7.385e-5
1.117,   7.144e-5
1.118,   6.931e-5
1.119,   6.728e-5
1.120,   6.537e-5
1.121,   6.362e-5
1.122,   6.202e-5
1.123,   6.048e-5
1.124,   5.912e-5
1.125,   5.774e-5
1.126,   5.654e-5
1.127,   5.543e-5
1.128,   5.437e-5
1.129,   5.347e-5
1.130,   5.256e-5
1.131,   5.161e-5
1.132,   5.080e-5
1.133,   4.996e-5
1.134,   4.924e-5
1.135,   4.858e-5
1.136,   4.789e-5
1.137,   4.732e-5
1.138,   4.675e-5
1.139,   4.618e-5
1.140,   4.568e-5
1.141,   4.519e-5
1.142,   4.470e-5
1.143,   4.426e-5
1.144,   4.382e-5
1.145,   4.341e-5
1.146,   4.299e-5
1.147,   4.265e-5
1.148,   4.234e-5
1.149,   4.200e-5
1.150,   4.170e-5
1.151,   4.139e-5
1.152,   4.109e-5
1.153,   4.090e-5
1.154,   4.061e-5
1.155,   4.034e-5
1.156,   4.018e-5
1.157,   3.992e-5
1.158,   3.978e-5
1.159,   3.961e-5
1.160,   3.942e-5
1.161,   3.924e-5
1.162,   3.907e-5
1.163,   3.885e-5
1.164,   3.871e-5
1.165,   3.853e-5
1.166,   3.847e-5
1.167,   3.838e-5
1.168,   3.820e-5
1.169,   3.812e-5
1.170,   3.798e-5
1.171,   3.792e-5
1.172,   3.790e-5
1.173,   3.778e-5
1.174,   3.770e-5
1.175,   3.767e-5
1.176,   3.762e-5
1.177,   3.758e-5
1.178,   3.751e-5
1.179,   3.745e-5
1.180,   3.740e-5
1.181,   3.734e-5
1.182,   3.733e-5
1.183,   3.725e-5
1.184,   3.718e-5
1.185,   3.715e-5
1.186,   3.714e-5
1.187,   3.713e-5
1.188,   3.711e-5
1.189,   3.705e-5
1.190,   3.703e-5
1.191,   3.698e-5
1.192,   3.694e-5
1.193,   3.697e-5
1.194,   3.695e-5
1.195,   3.693e-5
1.196,   3.695e-5
1.197,   3.689e-5
1.198,   3.693e-5
1.199,   3.695e-5
1.200,   3.690e-5
1.201,   3.697e-5
1.202,   3.699e-5
1.203,   3.696e-5
1.204,   3.701e-5
1.205,   3.700e-5
1.206,   3.704e-5
1.207,   3.706e-5
1.208,   3.704e-5
1.209,   3.706e-5
1.210,   3.707e-5
1.211,   3.714e-5
1.212,   3.719e-5
1.213,   3.713e-5
1.214,   3.718e-5
1.215,   3.722e-5
1.216,   3.720e-5
1.217,   3.726e-5
1.218,   3.731e-5
1.219,   3.733e-5
1.220,   3.741e-5
1.221,   3.739e-5
1.222,   3.738e-5
1.223,   3.744e-5
1.224,   3.745e-5
1.225,   3.745e-5
1.226,   3.750e-5
1.227,   3.749e-5
1.228,   3.760e-5
1.229,   3.766e-5
1.230,   3.772e-5
1.231,   3.776e-5
1.232,   3.776e-5
1.233,   3.785e-5
1.234,   3.783e-5
1.235,   3.787e-5
1.236,   3.794e-5
1.237,   3.796e-5
1.238,   3.804e-5
1.239,   3.810e-5
1.240,   3.814e-5
1.241,   3.822e-5
1.242,   3.821e-5
1.243,   3.828e-5
1.244,   3.832e-5
1.245,   3.834e-5
1.246,   3.838e-5
1.247,   3.853e-5
1.248,   3.850e-5
1.249,   3.855e-5
1.250,   3.864e-5
1.251,   3.866e-5
1.252,   3.876e-5
1.253,   3.874e-5
1.254,   3.881e-5
1.255,   3.887e-5
1.256,   3.894e-5
1.257,   3.899e-5
1.258,   3.899e-5
1.259,   3.903e-5
1.260,   3.917e-5
1.261,   3.921e-5
1.262,   3.925e-5
1.263,   3.931e-5
1.264,   3.933e-5
1.265,   3.946e-5
1.266,   3.948e-5
1.267,   3.951e-5
1.268,   3.960e-5
1.269,   3.958e-5
1.270,   3.967e-5
1.271,   3.976e-5
1.272,   3.977e-5
1.273,   3.988e-5
1.274,   3.989e-5
1.275,   3.999e-5
1.276,   4.008e-5
1.277,   4.005e-5
1.278,   4.011e-5
1.279,   4.019e-5
1.280,   4.014e-5
1.281,   4.025e-5
1.282,   4.035e-5
1.283,   4.042e-5
1.284,   4.049e-5
1.285,   4.047e-5
1.286,   4.053e-5
1.287,   4.053e-5
1.288,   4.063e-5
1.289,   4.068e-5
1.290,   4.075e-5
1.291,   4.079e-5
1.292,   4.081e-5
1.293,   4.082e-5
1.294,   4.094e-5
1.295,   4.098e-5
1.296,   4.096e-5
1.297,   4.109e-5
1.298,   4.111e-5
1.299,   4.115e-5
1.300,   4.121e-5
1.301,   4.122e-5
1.302,   4.132e-5
1.303,   4.141e-5
1.304,   4.145e-5
1.305,   4.151e-5
1.306,   4.153e-5
1.307,   4.159e-5
1.308,   4.167e-5
1.309,   4.169e-5
1.310,   4.178e-5
1.311,   4.181e-5
1.312,   4.184e-5
1.313,   4.199e-5
1.314,   4.206e-5
1.315,   4.211e-5
1.316,   4.216e-5
1.317,   4.219e-5
1.318,   4.229e-5
1.319,   4.233e-5
1.320,   4.241e-5
1.321,   4.248e-5
1.322,   4.257e-5
1.323,   4.262e-5
1.324,   4.267e-5
1.325,   4.266e-5
1.326,   4.280e-5
1.327,   4.292e-5
1.328,   4.292e-5
1.329,   4.302e-5
1.330,   4.312e-5
1.331,   4.317e-5
1.332,   4.330e-5
1.333,   4.334e-5
1.334,   4.338e-5
1.335,   4.344e-5
1.336,   4.352e-5
1.337,   4.367e-5
1.338,   4.371e-5
1.339,   4.384e-5
1.340,   4.395e-5
1.341,   4.399e-5
1.342,   4.415e-5
1.343,   4.421e-5
1.344,   4.431e-5
1.345,   4.439e-5
1.346,   4.452e-5
1.347,   4.462e-5
1.348,   4.476e-5
1.349,   4.483e-5
1.350,   4.495e-5
1.351,   4.512e-5
1.352,   4.526e-5
1.353,   4.547e-5
1.354,   4.560e-5
1.355,   4.573e-5
1.356,   4.592e-5
1.357,   4.599e-5
1.358,   4.618e-5
1.359,   4.637e-5
1.360,   4.650e-5
1.361,   4.675e-5
1.362,   4.695e-5
1.363,   4.716e-5
1.364,   4.736e-5
1.365,   4.758e-5
1.366,   4.782e-5
1.367,   4.808e-5
1.368,   4.831e-5
1.369,   4.861e-5
1.370,   4.889e-5
1.371,   4.921e-5
1.372,   4.953e-5
1.373,   4.980e-5
1.374,   5.013e-5
1.375,   5.056e-5
1.376,   5.089e-5
1.377,   5.138e-5
1.378,   5.180e-5
1.379,   5.220e-5
1.380,   5.271e-5
1.381,   5.316e-5
1.382,   5.369e-5
1.383,   5.429e-5
1.384,   5.482e-5
1.385,   5.545e-5
1.386,   5.609e-5
1.387,   5.667e-5
1.388,   5.748e-5
1.389,   5.819e-5
1.390,   5.901e-5
1.391,   5.993e-5
1.392,   6.081e-5
1.393,   6.176e-5
1.394,   6.274e-5
1.395,   6.380e-5
1.396,   6.496e-5
1.397,   6.624e-5
1.398,   6.747e-5
1.399,   6.876e-5
1.400,   7.009e-5
1.401,   7.161e-5
1.402,   7.313e-5
1.403,   7.481e-5
1.404,   7.669e-5
1.405,   7.840e-5
1.406,   8.034e-5
1.407,   8.230e-5
1.408,   8.438e-5
1.409,   8.667e-5
1.410,   8.904e-5
1.411,   9.144e-5
1.412,   9.405e-5
1.413,   9.668e-5
1.414,   9.946e-5
1.415,   1.024e-4
1.416,   1.055e-4
1.417,   1.088e-4
1.418,   1.122e-4
1.419,   1.157e-4
1.420,   1.195e-4
1.421,   1.233e-4
1.422,   1.274e-4
1.423,   1.316e-4
1.424,   1.358e-4
1.425,   1.405e-4
1.426,   1.452e-4
1.427,   1.500e-4
1.428,   1.553e-4
1.429,   1.606e-4
1.430,   1.662e-4
1.431,   1.719e-4
1.432,   1.777e-4
1.433,   1.839e-4
1.434,   1.902e-4
1.435,   1.967e-4
1.436,   2.036e-4
1.437,   2.108e-4
1.438,   2.188e-4
1.439,   2.273e-4
1.440,   2.359e-4
1.441,   2.446e-4
1.442,   2.536e-4
1.443,   2.627e-4
1.444,   2.739e-4
1.445,   2.850e-4
1.446,   2.957e-4
1.447,   3.066e-4
1.448,   3.179e-4
1.449,   3.299e-4
1.450,   3.424e-4
1.451,   3.549e-4
1.452,   3.678e-4
1.453,   3.809e-4
1.454,   3.920e-4
1.455,   4.071e-4
1.456,   4.220e-4
1.457,   4.373e-4
1.458,   4.528e-4
1.459,   4.688e-4
1.460,   4.852e-4
1.461,   5.019e-4
1.462,   5.178e-4
1.463,   5.450e-4
1.464,   5.668e-4
1.465,   5.872e-4
1.466,   6.082e-4
1.467,   6.295e-4
1.468,   6.514e-4
1.469,   6.737e-4
1.470,   6.951e-4
1.471,   7.177e-4
1.472,   7.428e-4
1.473,   7.677e-4
1.474,   7.827e-4
1.475,   8.157e-4
1.476,   8.458e-4
1.477,   8.625e-4
1.478,   9.000e-4
1.479,   9.349e-4
1.480,   9.623e-4
1.481,   9.827e-4
1.482,   1.020e-3
1.483,   1.047e-3
1.484,   1.087e-3
1.485,   1.113e-3
1.486,   1.146e-3
1.487,   1.184e-3
1.488,   1.219e-3
1.489,   1.258e-3
1.490,   1.289e-3
1.491,   1.326e-3
1.492,   1.371e-3
1.493,   1.412e-3
1.494,   1.457e-3
1.495,   1.491e-3
1.496,   1.540e-3
1.497,   1.578e-3
1.498,   1.625e-3
1.499,   1.673e-3
1.500,   1.719e-3
1.501,   1.786e-3
1.502,   1.833e-3
1.503,   1.881e-3
1.504,   1.934e-3
1.505,   1.986e-3
1.506,   2.034e-3
1.507,   2.090e-3
1.508,   2.144e-3
1.509,   2.200e-3
1.510,   2.252e-3
1.511,   2.307e-3
1.512,   2.370e-3
1.513,   2.431e-3
1.514,   2.492e-3
1.515,   2.550e-3
1.516,   2.610e-3
1.517,   2.675e-3
1.518,   2.733e-3
1.519,   2.796e-3
1.520,   2.854e-3
1.521,   2.925e-3
1.522,   3.006e-3
1.523,   3.070e-3
1.524,   3.153e-3
1.525,   3.225e-3
1.526,   3.295e-3
1.527,   3.374e-3
1.528,   3.443e-3
1.529,   3.518e-3
1.530,   3.600e-3
1.531,   3.670e-3
1.532,   3.748e-3
1.533,   3.814e-3
1.534,   3.883e-3
1.535,   3.947e-3
1.536,   4.039e-3
1.537,   4.089e-3
1.538,   4.190e-3
1.539,   4.294e-3
1.540,   4.392e-3
1.541,   4.468e-3
1.542,   4.550e-3
1.543,   4.639e-3
1.544,   4.721e-3
1.545,   4.802e-3
1.546,   4.887e-3
1.547,   4.993e-3
1.548,   5.074e-3
1.549,   5.162e-3
1.550,   5.262e-3
1.551,   5.354e-3
1.552,   5.451e-3
1.553,   5.529e-3
1.554,   5.625e-3
1.555,   5.722e-3
1.556,   5.821e-3
1.557,   6.037e-3
1.558,   6.230e-3
1.559,   6.329e-3
1.560,   6.418e-3
1.561,   6.495e-3
1.562,   6.608e-3
1.563,   6.681e-3
1.564,   6.818e-3
1.565,   6.916e-3
1.566,   6.995e-3
1.567,   7.114e-3
1.568,   7.210e-3
1.569,   7.299e-3
1.570,   7.413e-3
1.571,   7.494e-3
1.572,   7.593e-3
1.573,   7.710e-3
1.574,   7.838e-3
1.575,   7.932e-3
1.576,   8.041e-3
1.577,   8.167e-3
1.578,   8.246e-3
1.579,   8.378e-3
1.580,   8.484e-3
1.581,   8.569e-3
1.582,   8.687e-3
1.583,   8.785e-3
1.584,   8.903e-3
1.585,   8.997e-3
1.586,   9.094e-3
1.587,   9.271e-3
1.588,   9.473e-3
1.589,   9.566e-3
1.590,   9.664e-3
1.591,   9.792e-3
1.592,   9.902e-3
1.593,   1.000e-2
1.594,   1.006e-2
1.595,   1.006e-2
1.596,   1.006e-2
1.597,   1.006e-2
1.598,   1.006e-2
1.599,   1.006e-2
1.600,   1.006e-2