File: Experimental Records and Raw Data/batch2/final400/B2_BEST_400#18_Full-272mV.txt
Jan. 14, 2023   16:40:16
Linear Sweep Voltammetry
File: d:\current work\al_oer\electrochemical test data\batch 2\400\B2_BEST_400#18_Full-272mV.txt
Data Source:  Experiment
Instrument Model:  CHI660E
Header:
Note:

Init E (V) = 1.098

Final E (V) = 1.580

Scan Rate (V/s) = 0.010
Sample Interval (V) = 0.001
Quiet Time (sec) = 2
Sensitivity (A/V) = 0.001
Comp R (ohm) = 5.7

Results:

Channel 1:

Potential/V, Current/A
1.098,   3.306e-4
1.099,   3.140e-4
1.100,   2.986e-4
1.101,   2.847e-4
1.102,   2.725e-4
1.103,   2.619e-4
1.104,   2.519e-4
1.105,   2.429e-4
1.106,   2.342e-4
1.107,   2.261e-4
1.108,   2.192e-4
1.109,   2.126e-4
1.110,   2.064e-4
1.111,   2.007e-4
1.112,   1.954e-4
1.113,   1.906e-4
1.114,   1.862e-4
1.115,   1.819e-4
1.116,   1.780e-4
1.117,   1.741e-4
1.118,   1.707e-4
1.119,   1.674e-4
1.120,   1.641e-4
1.121,   1.610e-4
1.122,   1.580e-4
1.123,   1.553e-4
1.124,   1.530e-4
1.125,   1.506e-4
1.126,   1.483e-4
1.127,   1.458e-4
1.128,   1.434e-4
1.129,   1.412e-4
1.130,   1.389e-4
1.131,   1.369e-4
1.132,   1.350e-4
1.133,   1.333e-4
1.134,   1.317e-4
1.135,   1.302e-4
1.136,   1.287e-4
1.137,   1.272e-4
1.138,   1.257e-4
1.139,   1.243e-4
1.140,   1.230e-4
1.141,   1.216e-4
1.142,   1.202e-4
1.143,   1.190e-4
1.144,   1.177e-4
1.145,   1.166e-4
1.146,   1.154e-4
1.147,   1.144e-4
1.148,   1.133e-4
1.149,   1.121e-4
1.150,   1.111e-4
1.151,   1.102e-4
1.152,   1.093e-4
1.153,   1.083e-4
1.154,   1.073e-4
1.155,   1.066e-4
1.156,   1.059e-4
1.157,   1.051e-4
1.158,   1.043e-4
1.159,   1.036e-4
1.160,   1.030e-4
1.161,   1.023e-4
1.162,   1.016e-4
1.163,   1.008e-4
1.164,   1.001e-4
1.165,   9.953e-5
1.166,   9.888e-5
1.167,   9.820e-5
1.168,   9.775e-5
1.169,   9.724e-5
1.170,   9.694e-5
1.171,   9.623e-5
1.172,   9.565e-5
1.173,   9.521e-5
1.174,   9.471e-5
1.175,   9.420e-5
1.176,   9.373e-5
1.177,   9.329e-5
1.178,   9.292e-5
1.179,   9.245e-5
1.180,   9.194e-5
1.181,   9.146e-5
1.182,   9.112e-5
1.183,   9.082e-5
1.184,   9.041e-5
1.185,   9.008e-5
1.186,   8.972e-5
1.187,   8.945e-5
1.188,   8.917e-5
1.189,   8.888e-5
1.190,   8.867e-5
1.191,   8.837e-5
1.192,   8.813e-5
1.193,   8.786e-5
1.194,   8.753e-5
1.195,   8.729e-5
1.196,   8.699e-5
1.197,   8.673e-5
1.198,   8.649e-5
1.199,   8.629e-5
1.200,   8.618e-5
1.201,   8.600e-5
1.202,   8.574e-5
1.203,   8.566e-5
1.204,   8.539e-5
1.205,   8.513e-5
1.206,   8.492e-5
1.207,   8.483e-5
1.208,   8.464e-5
1.209,   8.443e-5
1.210,   8.422e-5
1.211,   8.411e-5
1.212,   8.401e-5
1.213,   8.400e-5
1.214,   8.395e-5
1.215,   8.379e-5
1.216,   8.361e-5
1.217,   8.349e-5
1.218,   8.336e-5
1.219,   8.330e-5
1.220,   8.325e-5
1.221,   8.327e-5
1.222,   8.322e-5
1.223,   8.308e-5
1.224,   8.295e-5
1.225,   8.293e-5
1.226,   8.282e-5
1.227,   8.282e-5
1.228,   8.286e-5
1.229,   8.273e-5
1.230,   8.265e-5
1.231,   8.261e-5
1.232,   8.254e-5
1.233,   8.244e-5
1.234,   8.243e-5
1.235,   8.239e-5
1.236,   8.240e-5
1.237,   8.238e-5
1.238,   8.237e-5
1.239,   8.239e-5
1.240,   8.238e-5
1.241,   8.250e-5
1.242,   8.240e-5
1.243,   8.244e-5
1.244,   8.243e-5
1.245,   8.240e-5
1.246,   8.237e-5
1.247,   8.236e-5
1.248,   8.230e-5
1.249,   8.236e-5
1.250,   8.257e-5
1.251,   8.247e-5
1.252,   8.257e-5
1.253,   8.259e-5
1.254,   8.257e-5
1.255,   8.253e-5
1.256,   8.252e-5
1.257,   8.244e-5
1.258,   8.233e-5
1.259,   8.243e-5
1.260,   8.253e-5
1.261,   8.270e-5
1.262,   8.256e-5
1.263,   8.254e-5
1.264,   8.261e-5
1.265,   8.266e-5
1.266,   8.267e-5
1.267,   8.263e-5
1.268,   8.261e-5
1.269,   8.260e-5
1.270,   8.256e-5
1.271,   8.249e-5
1.272,   8.254e-5
1.273,   8.270e-5
1.274,   8.275e-5
1.275,   8.271e-5
1.276,   8.278e-5
1.277,   8.286e-5
1.278,   8.292e-5
1.279,   8.290e-5
1.280,   8.288e-5
1.281,   8.298e-5
1.282,   8.299e-5
1.283,   8.305e-5
1.284,   8.305e-5
1.285,   8.315e-5
1.286,   8.308e-5
1.287,   8.319e-5
1.288,   8.325e-5
1.289,   8.328e-5
1.290,   8.332e-5
1.291,   8.335e-5
1.292,   8.351e-5
1.293,   8.361e-5
1.294,   8.367e-5
1.295,   8.370e-5
1.296,   8.374e-5
1.297,   8.384e-5
1.298,   8.398e-5
1.299,   8.414e-5
1.300,   8.428e-5
1.301,   8.433e-5
1.302,   8.452e-5
1.303,   8.464e-5
1.304,   8.468e-5
1.305,   8.497e-5
1.306,   8.499e-5
1.307,   8.502e-5
1.308,   8.498e-5
1.309,   8.515e-5
1.310,   8.526e-5
1.311,   8.529e-5
1.312,   8.541e-5
1.313,   8.551e-5
1.314,   8.556e-5
1.315,   8.562e-5
1.316,   8.578e-5
1.317,   8.597e-5
1.318,   8.612e-5
1.319,   8.628e-5
1.320,   8.641e-5
1.321,   8.669e-5
1.322,   8.676e-5
1.323,   8.706e-5
1.324,   8.728e-5
1.325,   8.742e-5
1.326,   8.765e-5
1.327,   8.778e-5
1.328,   8.795e-5
1.329,   8.812e-5
1.330,   8.818e-5
1.331,   8.832e-5
1.332,   8.854e-5
1.333,   8.879e-5
1.334,   8.910e-5
1.335,   8.935e-5
1.336,   8.963e-5
1.337,   8.982e-5
1.338,   8.999e-5
1.339,   9.035e-5
1.340,   9.064e-5
1.341,   9.097e-5
1.342,   9.126e-5
1.343,   9.159e-5
1.344,   9.186e-5
1.345,   9.223e-5
1.346,   9.258e-5
1.347,   9.297e-5
1.348,   9.329e-5
1.349,   9.370e-5
1.350,   9.414e-5
1.351,   9.458e-5
1.352,   9.501e-5
1.353,   9.547e-5
1.354,   9.586e-5
1.355,   9.631e-5
1.356,   9.693e-5
1.357,   9.741e-5
1.358,   9.797e-5
1.359,   9.869e-5
1.360,   9.923e-5
1.361,   9.992e-5
1.362,   1.006e-4
1.363,   1.014e-4
1.364,   1.020e-4
1.365,   1.029e-4
1.366,   1.036e-4
1.367,   1.044e-4
1.368,   1.054e-4
1.369,   1.064e-4
1.370,   1.073e-4
1.371,   1.084e-4
1.372,   1.095e-4
1.373,   1.108e-4
1.374,   1.122e-4
1.375,   1.135e-4
1.376,   1.149e-4
1.377,   1.166e-4
1.378,   1.181e-4
1.379,   1.198e-4
1.380,   1.216e-4
1.381,   1.235e-4
1.382,   1.255e-4
1.383,   1.275e-4
1.384,   1.298e-4
1.385,   1.320e-4
1.386,   1.343e-4
1.387,   1.370e-4
1.388,   1.400e-4
1.389,   1.428e-4
1.390,   1.459e-4
1.391,   1.490e-4
1.392,   1.523e-4
1.393,   1.560e-4
1.394,   1.597e-4
1.395,   1.638e-4
1.396,   1.677e-4
1.397,   1.720e-4
1.398,   1.766e-4
1.399,   1.813e-4
1.400,   1.865e-4
1.401,   1.917e-4
1.402,   1.969e-4
1.403,   2.026e-4
1.404,   2.082e-4
1.405,   2.140e-4
1.406,   2.202e-4
1.407,   2.267e-4
1.408,   2.334e-4
1.409,   2.404e-4
1.410,   2.476e-4
1.411,   2.550e-4
1.412,   2.628e-4
1.413,   2.707e-4
1.414,   2.778e-4
1.415,   2.857e-4
1.416,   2.943e-4
1.417,   3.040e-4
1.418,   3.138e-4
1.419,   3.240e-4
1.420,   3.342e-4
1.421,   3.446e-4
1.422,   3.556e-4
1.423,   3.679e-4
1.424,   3.801e-4
1.425,   3.919e-4
1.426,   4.045e-4
1.427,   4.172e-4
1.428,   4.300e-4
1.429,   4.433e-4
1.430,   4.567e-4
1.431,   4.706e-4
1.432,   4.849e-4
1.433,   4.995e-4
1.434,   5.136e-4
1.435,   5.295e-4
1.436,   5.467e-4
1.437,   5.611e-4
1.438,   5.760e-4
1.439,   5.932e-4
1.440,   6.084e-4
1.441,   6.242e-4
1.442,   6.398e-4
1.443,   6.576e-4
1.444,   6.756e-4
1.445,   6.938e-4
1.446,   7.137e-4
1.447,   7.327e-4
1.448,   7.514e-4
1.449,   7.724e-4
1.450,   7.922e-4
1.451,   8.128e-4
1.452,   8.334e-4
1.453,   8.528e-4
1.454,   8.736e-4
1.455,   8.956e-4
1.456,   9.173e-4
1.457,   9.386e-4
1.458,   9.610e-4
1.459,   9.826e-4
1.460,   1.005e-3
1.461,   1.029e-3
1.462,   1.052e-3
1.463,   1.074e-3
1.464,   1.098e-3
1.465,   1.122e-3
1.466,   1.146e-3
1.467,   1.170e-3
1.468,   1.193e-3
1.469,   1.214e-3
1.470,   1.237e-3
1.471,   1.261e-3
1.472,   1.284e-3
1.473,   1.309e-3
1.474,   1.333e-3
1.475,   1.357e-3
1.476,   1.379e-3
1.477,   1.404e-3
1.478,   1.429e-3
1.479,   1.452e-3
1.480,   1.477e-3
1.481,   1.503e-3
1.482,   1.526e-3
1.483,   1.549e-3
1.484,   1.576e-3
1.485,   1.601e-3
1.486,   1.625e-3
1.487,   1.648e-3
1.488,   1.667e-3
1.489,   1.682e-3
1.490,   1.705e-3
1.491,   1.728e-3
1.492,   1.750e-3
1.493,   1.773e-3
1.494,   1.794e-3
1.495,   1.816e-3
1.496,   1.835e-3
1.497,   1.852e-3
1.498,   1.872e-3
1.499,   1.892e-3
1.500,   1.907e-3
1.501,   1.928e-3
1.502,   1.946e-3
1.503,   1.958e-3
1.504,   1.967e-3
1.505,   1.982e-3
1.506,   2.002e-3
1.507,   2.020e-3
1.508,   2.037e-3
1.509,   2.054e-3
1.510,   2.072e-3
1.511,   2.088e-3
1.512,   2.104e-3
1.513,   2.118e-3
1.514,   2.130e-3
1.515,   2.142e-3
1.516,   2.151e-3
1.517,   2.164e-3
1.518,   2.179e-3
1.519,   2.192e-3
1.520,   2.214e-3
1.521,   2.254e-3
1.522,   2.271e-3
1.523,   2.282e-3
1.524,   2.290e-3
1.525,   2.297e-3
1.526,   2.305e-3
1.527,   2.313e-3
1.528,   2.322e-3
1.529,   2.327e-3
1.530,   2.332e-3
1.531,   2.337e-3
1.532,   2.344e-3
1.533,   2.352e-3
1.534,   2.361e-3
1.535,   2.365e-3
1.536,   2.367e-3
1.537,   2.374e-3
1.538,   2.377e-3
1.539,   2.382e-3
1.540,   2.392e-3
1.541,   2.399e-3
1.542,   2.402e-3
1.543,   2.439e-3
1.544,   2.453e-3
1.545,   2.457e-3
1.546,   2.458e-3
1.547,   2.460e-3
1.548,   2.462e-3
1.549,   2.463e-3
1.550,   2.465e-3
1.551,   2.470e-3
1.552,   2.473e-3
1.553,   2.475e-3
1.554,   2.478e-3
1.555,   2.480e-3
1.556,   2.484e-3
1.557,   2.490e-3
1.558,   2.494e-3
1.559,   2.492e-3
1.560,   2.494e-3
1.561,   2.501e-3
1.562,   2.505e-3
1.563,   2.506e-3
1.564,   2.513e-3
1.565,   2.515e-3
1.566,   2.515e-3
1.567,   2.520e-3
1.568,   2.520e-3
1.569,   2.526e-3
1.570,   2.527e-3
1.571,   2.530e-3
1.572,   2.536e-3
1.573,   2.541e-3
1.574,   2.544e-3
1.575,   2.545e-3
1.576,   2.548e-3
1.577,   2.552e-3
1.578,   2.559e-3
1.579,   2.561e-3
1.580,   2.562e-3