File: Experimental Records and Raw Data/batch2/final400/B2_VARIANCE_400#9_High_Quality-221mV.txt
Jan. 13, 2023   15:47:37
Linear Sweep Voltammetry
File: d:\current work\al_oer\electrochemical test data\batch 2\400\B2_VARIANCE_400#9_High_Quality-221mV.txt
Data Source:  Experiment
Instrument Model:  CHI660E
Header:
Note:

Init E (V) = 1.098

Final E (V) = 1.503

Scan Rate (V/s) = 0.010
Sample Interval (V) = 0.001
Quiet Time (sec) = 2
Sensitivity (A/V) = 0.001
Comp R (ohm) = 5.6

Results:

Channel 1:

Potential/V, Current/A
1.098,   1.499e-4
1.099,   1.555e-4
1.100,   1.472e-4
1.101,   1.387e-4
1.102,   1.317e-4
1.103,   1.253e-4
1.104,   1.196e-4
1.105,   1.147e-4
1.106,   1.100e-4
1.107,   1.058e-4
1.108,   1.022e-4
1.109,   9.854e-5
1.110,   9.556e-5
1.111,   9.289e-5
1.112,   9.052e-5
1.113,   8.854e-5
1.114,   8.621e-5
1.115,   8.438e-5
1.116,   8.283e-5
1.117,   8.106e-5
1.118,   7.989e-5
1.119,   7.861e-5
1.120,   7.713e-5
1.121,   7.606e-5
1.122,   7.477e-5
1.123,   7.374e-5
1.124,   7.296e-5
1.125,   7.191e-5
1.126,   7.129e-5
1.127,   7.042e-5
1.128,   6.962e-5
1.129,   6.911e-5
1.130,   6.828e-5
1.131,   6.781e-5
1.132,   6.738e-5
1.133,   6.652e-5
1.134,   6.627e-5
1.135,   6.567e-5
1.136,   6.518e-5
1.137,   6.497e-5
1.138,   6.437e-5
1.139,   6.402e-5
1.140,   6.377e-5
1.141,   6.320e-5
1.142,   6.301e-5
1.143,   6.278e-5
1.144,   6.234e-5
1.145,   6.234e-5
1.146,   6.190e-5
1.147,   6.166e-5
1.148,   6.152e-5
1.149,   6.111e-5
1.150,   6.103e-5
1.151,   6.090e-5
1.152,   6.056e-5
1.153,   6.054e-5
1.154,   6.021e-5
1.155,   6.008e-5
1.156,   6.006e-5
1.157,   5.992e-5
1.158,   5.979e-5
1.159,   5.957e-5
1.160,   5.942e-5
1.161,   5.948e-5
1.162,   5.919e-5
1.163,   5.921e-5
1.164,   5.924e-5
1.165,   5.874e-5
1.166,   5.888e-5
1.167,   5.890e-5
1.168,   5.868e-5
1.169,   5.877e-5
1.170,   5.877e-5
1.171,   5.857e-5
1.172,   5.862e-5
1.173,   5.842e-5
1.174,   5.849e-5
1.175,   5.842e-5
1.176,   5.836e-5
1.177,   5.839e-5
1.178,   5.816e-5
1.179,   5.826e-5
1.180,   5.833e-5
1.181,   5.811e-5
1.182,   5.829e-5
1.183,   5.819e-5
1.184,   5.802e-5
1.185,   5.818e-5
1.186,   5.804e-5
1.187,   5.812e-5
1.188,   5.825e-5
1.189,   5.799e-5
1.190,   5.814e-5
1.191,   5.805e-5
1.192,   5.807e-5
1.193,   5.824e-5
1.194,   5.803e-5
1.195,   5.821e-5
1.196,   5.828e-5
1.197,   5.807e-5
1.198,   5.819e-5
1.199,   5.826e-5
1.200,   5.806e-5
1.201,   5.835e-5
1.202,   5.829e-5
1.203,   5.819e-5
1.204,   5.837e-5
1.205,   5.814e-5
1.206,   5.833e-5
1.207,   5.831e-5
1.208,   5.839e-5
1.209,   5.844e-5
1.210,   5.824e-5
1.211,   5.841e-5
1.212,   5.853e-5
1.213,   5.832e-5
1.214,   5.860e-5
1.215,   5.857e-5
1.216,   5.838e-5
1.217,   5.865e-5
1.218,   5.848e-5
1.219,   5.860e-5
1.220,   5.870e-5
1.221,   5.853e-5
1.222,   5.874e-5
1.223,   5.873e-5
1.224,   5.863e-5
1.225,   5.889e-5
1.226,   5.865e-5
1.227,   5.880e-5
1.228,   5.890e-5
1.229,   5.870e-5
1.230,   5.892e-5
1.231,   5.894e-5
1.232,   5.875e-5
1.233,   5.903e-5
1.234,   5.912e-5
1.235,   5.900e-5
1.236,   5.913e-5
1.237,   5.889e-5
1.238,   5.919e-5
1.239,   5.913e-5
1.240,   5.908e-5
1.241,   5.922e-5
1.242,   5.902e-5
1.243,   5.917e-5
1.244,   5.924e-5
1.245,   5.903e-5
1.246,   5.926e-5
1.247,   5.938e-5
1.248,   5.926e-5
1.249,   5.944e-5
1.250,   5.922e-5
1.251,   5.934e-5
1.252,   5.943e-5
1.253,   5.943e-5
1.254,   5.952e-5
1.255,   5.937e-5
1.256,   5.936e-5
1.257,   5.961e-5
1.258,   5.941e-5
1.259,   5.967e-5
1.260,   5.969e-5
1.261,   5.941e-5
1.262,   5.965e-5
1.263,   5.965e-5
1.264,   5.952e-5
1.265,   5.985e-5
1.266,   5.981e-5
1.267,   5.969e-5
1.268,   5.992e-5
1.269,   5.970e-5
1.270,   5.979e-5
1.271,   5.988e-5
1.272,   5.987e-5
1.273,   6.004e-5
1.274,   5.986e-5
1.275,   5.983e-5
1.276,   6.003e-5
1.277,   5.971e-5
1.278,   6.016e-5
1.279,   6.015e-5
1.280,   6.005e-5
1.281,   6.019e-5
1.282,   5.996e-5
1.283,   6.008e-5
1.284,   6.018e-5
1.285,   6.033e-5
1.286,   6.031e-5
1.287,   6.020e-5
1.288,   6.017e-5
1.289,   6.043e-5
1.290,   6.006e-5
1.291,   6.031e-5
1.292,   6.044e-5
1.293,   6.017e-5
1.294,   6.045e-5
1.295,   6.049e-5
1.296,   6.044e-5
1.297,   6.060e-5
1.298,   6.065e-5
1.299,   6.062e-5
1.300,   6.075e-5
1.301,   6.062e-5
1.302,   6.079e-5
1.303,   6.073e-5
1.304,   6.086e-5
1.305,   6.111e-5
1.306,   6.087e-5
1.307,   6.104e-5
1.308,   6.115e-5
1.309,   6.094e-5
1.310,   6.133e-5
1.311,   6.142e-5
1.312,   6.118e-5
1.313,   6.157e-5
1.314,   6.141e-5
1.315,   6.150e-5
1.316,   6.173e-5
1.317,   6.164e-5
1.318,   6.185e-5
1.319,   6.175e-5
1.320,   6.187e-5
1.321,   6.213e-5
1.322,   6.199e-5
1.323,   6.248e-5
1.324,   6.257e-5
1.325,   6.230e-5
1.326,   6.255e-5
1.327,   6.265e-5
1.328,   6.263e-5
1.329,   6.285e-5
1.330,   6.296e-5
1.331,   6.297e-5
1.332,   6.327e-5
1.333,   6.321e-5
1.334,   6.350e-5
1.335,   6.356e-5
1.336,   6.381e-5
1.337,   6.405e-5
1.338,   6.388e-5
1.339,   6.417e-5
1.340,   6.452e-5
1.341,   6.438e-5
1.342,   6.477e-5
1.343,   6.501e-5
1.344,   6.499e-5
1.345,   6.542e-5
1.346,   6.541e-5
1.347,   6.574e-5
1.348,   6.601e-5
1.349,   6.630e-5
1.350,   6.659e-5
1.351,   6.677e-5
1.352,   6.708e-5
1.353,   6.762e-5
1.354,   6.766e-5
1.355,   6.810e-5
1.356,   6.856e-5
1.357,   6.870e-5
1.358,   6.925e-5
1.359,   6.978e-5
1.360,   7.001e-5
1.361,   7.067e-5
1.362,   7.126e-5
1.363,   7.170e-5
1.364,   7.247e-5
1.365,   7.276e-5
1.366,   7.361e-5
1.367,   7.432e-5
1.368,   7.506e-5
1.369,   7.598e-5
1.370,   7.661e-5
1.371,   7.757e-5
1.372,   7.879e-5
1.373,   7.947e-5
1.374,   8.088e-5
1.375,   8.216e-5
1.376,   8.314e-5
1.377,   8.451e-5
1.378,   8.582e-5
1.379,   8.737e-5
1.380,   8.913e-5
1.381,   9.081e-5
1.382,   9.265e-5
1.383,   9.456e-5
1.384,   9.659e-5
1.385,   9.902e-5
1.386,   1.012e-4
1.387,   1.039e-4
1.388,   1.068e-4
1.389,   1.093e-4
1.390,   1.127e-4
1.391,   1.159e-4
1.392,   1.196e-4
1.393,   1.234e-4
1.394,   1.274e-4
1.395,   1.317e-4
1.396,   1.365e-4
1.397,   1.411e-4
1.398,   1.466e-4
1.399,   1.521e-4
1.400,   1.582e-4
1.401,   1.648e-4
1.402,   1.712e-4
1.403,   1.785e-4
1.404,   1.863e-4
1.405,   1.941e-4
1.406,   2.028e-4
1.407,   2.121e-4
1.408,   2.218e-4
1.409,   2.325e-4
1.410,   2.434e-4
1.411,   2.552e-4
1.412,   2.678e-4
1.413,   2.810e-4
1.414,   2.950e-4
1.415,   3.098e-4
1.416,   3.258e-4
1.417,   3.425e-4
1.418,   3.596e-4
1.419,   3.784e-4
1.420,   3.982e-4
1.421,   4.186e-4
1.422,   4.409e-4
1.423,   4.644e-4
1.424,   4.887e-4
1.425,   5.145e-4
1.426,   5.416e-4
1.427,   5.706e-4
1.428,   6.010e-4
1.429,   6.328e-4
1.430,   6.664e-4
1.431,   7.018e-4
1.432,   7.390e-4
1.433,   7.785e-4
1.434,   8.194e-4
1.435,   8.627e-4
1.436,   9.082e-4
1.437,   9.552e-4
1.438,   1.005e-3
1.439,   1.058e-3
1.440,   1.113e-3
1.441,   1.170e-3
1.442,   1.231e-3
1.443,   1.294e-3
1.444,   1.360e-3
1.445,   1.429e-3
1.446,   1.502e-3
1.447,   1.578e-3
1.448,   1.656e-3
1.449,   1.738e-3
1.450,   1.824e-3
1.451,   1.913e-3
1.452,   2.006e-3
1.453,   2.103e-3
1.454,   2.205e-3
1.455,   2.311e-3
1.456,   2.420e-3
1.457,   2.533e-3
1.458,   2.650e-3
1.459,   2.768e-3
1.460,   2.894e-3
1.461,   3.023e-3
1.462,   3.163e-3
1.463,   3.337e-3
1.464,   3.483e-3
1.465,   3.633e-3
1.466,   3.785e-3
1.467,   3.943e-3
1.468,   4.101e-3
1.469,   4.269e-3
1.470,   4.442e-3
1.471,   4.616e-3
1.472,   4.798e-3
1.473,   4.979e-3
1.474,   5.158e-3
1.475,   5.345e-3
1.476,   5.546e-3
1.477,   5.753e-3
1.478,   5.951e-3
1.479,   6.215e-3
1.480,   6.533e-3
1.481,   6.716e-3
1.482,   6.915e-3
1.483,   7.143e-3
1.484,   7.378e-3
1.485,   7.574e-3
1.486,   7.772e-3
1.487,   7.965e-3
1.488,   8.177e-3
1.489,   8.370e-3
1.490,   8.637e-3
1.491,   9.130e-3
1.492,   1.004e-2
1.493,   1.006e-2
1.494,   1.006e-2
1.495,   1.006e-2
1.496,   1.006e-2
1.497,   1.006e-2
1.498,   1.006e-2
1.499,   1.006e-2
1.500,   1.006e-2
1.501,   1.006e-2
1.502,   1.006e-2
1.503,   1.006e-2