File: Experimental Records and Raw Data/batch2/final400/B2_VARIANCE_400#6_High_Quality-350mV.txt
Jan. 14, 2023   13:32:12
Linear Sweep Voltammetry
File: d:\current work\al_oer\electrochemical test data\batch 2\400\B2_VARIANCE_400#6_High_Quality-350mV.txt
Data Source:  Experiment
Instrument Model:  CHI660E
Header:
Note:

Init E (V) = 1.086

Final E (V) = 1.685

Scan Rate (V/s) = 0.010
Sample Interval (V) = 0.001
Quiet Time (sec) = 2
Sensitivity (A/V) = 0.001
Comp R (ohm) = 5.5

Results:

Channel 1:
Ep = 1.466V
ip = 2.064e-3A
Ah = 4.659e-2C

Potential/V, Current/A
1.086, 	0.00003107
1.087, 	0.00002954
1.088, 	0.00002788
1.089, 	0.00002649
1.09, 	0.00002517
1.091, 	0.00002398
1.092, 	0.00002288
1.093, 	0.00002202
1.094, 	0.00002122
1.095, 	0.00002046
1.096, 	0.0000197
1.097, 	0.00001904
1.098, 	0.00001845
1.099, 	0.00001785
1.1, 	0.00001731
1.101, 	0.00001687
1.102, 	0.00001646
1.103, 	0.00001611
1.104, 	0.00001577
1.105, 	0.00001541
1.106, 	0.0000151
1.107, 	0.00001481
1.108, 	0.00001449
1.109, 	0.00001426
1.11, 	0.00001401
1.111, 	0.00001381
1.112, 	0.00001364
1.113, 	0.00001347
1.114, 	0.00001327
1.115, 	0.00001308
1.116, 	0.00001292
1.117, 	0.0000127
1.118, 	0.00001254
1.119, 	0.00001245
1.12, 	0.00001238
1.121, 	0.00001226
1.122, 	0.00001211
1.123, 	0.00001196
1.124, 	0.00001189
1.125, 	0.0000118
1.126, 	0.00001175
1.127, 	0.00001174
1.128, 	0.00001163
1.129, 	0.00001153
1.13, 	0.00001142
1.131, 	0.00001132
1.132, 	0.00001124
1.133, 	0.00001119
1.134, 	0.00001114
1.135, 	0.00001111
1.136, 	0.00001102
1.137, 	0.00001103
1.138, 	0.00001092
1.139, 	0.00001088
1.14, 	0.00001085
1.141, 	0.00001084
1.142, 	0.00001078
1.143, 	0.00001074
1.144, 	0.00001071
1.145, 	0.00001064
1.146, 	0.00001065
1.147, 	0.00001059
1.148, 	0.00001056
1.149, 	0.00001057
1.15, 	0.00001055
1.151, 	0.00001059
1.152, 	0.00001057
1.153, 	0.00001054
1.154, 	0.00001054
1.155, 	0.00001053
1.156, 	0.00001054
1.157, 	0.00001051
1.158, 	0.0000105
1.159, 	0.00001053
1.16, 	0.00001053
1.161, 	0.00001052
1.162, 	0.00001049
1.163, 	0.00001046
1.164, 	0.0000105
1.165, 	0.00001051
1.166, 	0.00001052
1.167, 	0.00001055
1.168, 	0.00001054
1.169, 	0.00001054
1.17, 	0.00001058
1.171, 	0.00001056
1.172, 	0.00001057
1.173, 	0.00001062
1.174, 	0.00001057
1.175, 	0.00001062
1.176, 	0.00001062
1.177, 	0.00001064
1.178, 	0.00001067
1.179, 	0.00001067
1.18, 	0.0000107
1.181, 	0.00001071
1.182, 	0.00001074
1.183, 	0.00001075
1.184, 	0.0000108
1.185, 	0.00001087
1.186, 	0.0000109
1.187, 	0.00001085
1.188, 	0.00001088
1.189, 	0.00001089
1.19, 	0.00001095
1.191, 	0.00001098
1.192, 	0.00001099
1.193, 	0.00001095
1.194, 	0.00001098
1.195, 	0.000011
1.196, 	0.00001105
1.197, 	0.00001109
1.198, 	0.00001109
1.199, 	0.00001116
1.2, 	0.00001118
1.201, 	0.00001122
1.202, 	0.00001122
1.203, 	0.00001126
1.204, 	0.00001125
1.205, 	0.00001127
1.206, 	0.0000113
1.207, 	0.00001136
1.208, 	0.00001139
1.209, 	0.00001141
1.21, 	0.00001144
1.211, 	0.0000115
1.212, 	0.0000115
1.213, 	0.00001151
1.214, 	0.0000115
1.215, 	0.00001164
1.216, 	0.0000117
1.217, 	0.00001172
1.218, 	0.00001172
1.219, 	0.00001177
1.22, 	0.00001182
1.221, 	0.00001183
1.222, 	0.00001186
1.223, 	0.00001191
1.224, 	0.00001194
1.225, 	0.00001196
1.226, 	0.00001199
1.227, 	0.00001208
1.228, 	0.00001213
1.229, 	0.00001217
1.23, 	0.00001218
1.231, 	0.00001222
1.232, 	0.00001223
1.233, 	0.00001233
1.234, 	0.00001241
1.235, 	0.00001243
1.236, 	0.00001247
1.237, 	0.0000125
1.238, 	0.00001254
1.239, 	0.00001253
1.24, 	0.00001255
1.241, 	0.00001262
1.242, 	0.00001267
1.243, 	0.00001263
1.244, 	0.00001269
1.245, 	0.00001275
1.246, 	0.00001276
1.247, 	0.00001279
1.248, 	0.00001286
1.249, 	0.00001292
1.25, 	0.00001298
1.251, 	0.00001301
1.252, 	0.00001302
1.253, 	0.00001305
1.254, 	0.00001308
1.255, 	0.00001313
1.256, 	0.00001316
1.257, 	0.00001322
1.258, 	0.00001323
1.259, 	0.00001328
1.26, 	0.00001331
1.261, 	0.00001339
1.262, 	0.00001338
1.263, 	0.00001338
1.264, 	0.00001346
1.265, 	0.00001347
1.266, 	0.00001352
1.267, 	0.00001357
1.268, 	0.00001365
1.269, 	0.00001371
1.27, 	0.00001376
1.271, 	0.0000138
1.272, 	0.00001381
1.273, 	0.00001385
1.274, 	0.00001388
1.275, 	0.00001389
1.276, 	0.00001392
1.277, 	0.00001397
1.278, 	0.000014
1.279, 	0.00001406
1.28, 	0.00001411
1.281, 	0.00001417
1.282, 	0.00001427
1.283, 	0.00001426
1.284, 	0.00001432
1.285, 	0.00001437
1.286, 	0.0000144
1.287, 	0.00001442
1.288, 	0.00001449
1.289, 	0.00001449
1.29, 	0.00001456
1.291, 	0.0000146
1.292, 	0.00001463
1.293, 	0.00001471
1.294, 	0.00001472
1.295, 	0.00001481
1.296, 	0.00001485
1.297, 	0.00001491
1.298, 	0.00001495
1.299, 	0.000015
1.3, 	0.00001511
1.301, 	0.00001521
1.302, 	0.00001521
1.303, 	0.00001521
1.304, 	0.00001525
1.305, 	0.00001532
1.306, 	0.00001538
1.307, 	0.00001542
1.308, 	0.00001548
1.309, 	0.00001554
1.31, 	0.00001556
1.311, 	0.00001563
1.312, 	0.00001578
1.313, 	0.0000159
1.314, 	0.00001594
1.315, 	0.00001593
1.316, 	0.00001596
1.317, 	0.00001604
1.318, 	0.00001613
1.319, 	0.00001614
1.32, 	0.00001623
1.321, 	0.00001627
1.322, 	0.00001631
1.323, 	0.00001636
1.324, 	0.00001642
1.325, 	0.00001651
1.326, 	0.00001657
1.327, 	0.00001665
1.328, 	0.00001673
1.329, 	0.00001676
1.33, 	0.00001689
1.331, 	0.00001695
1.332, 	0.00001701
1.333, 	0.00001709
1.334, 	0.00001721
1.335, 	0.00001731
1.336, 	0.00001741
1.337, 	0.00001746
1.338, 	0.0000176
1.339, 	0.00001765
1.34, 	0.00001771
1.341, 	0.00001783
1.342, 	0.00001794
1.343, 	0.00001806
1.344, 	0.00001818
1.345, 	0.00001825
1.346, 	0.0000183
1.347, 	0.00001837
1.348, 	0.00001847
1.349, 	0.0000186
1.35, 	0.00001872
1.351, 	0.00001885
1.352, 	0.000019
1.353, 	0.00001915
1.354, 	0.0000193
1.355, 	0.0000194
1.356, 	0.00001951
1.357, 	0.00001968
1.358, 	0.00001987
1.359, 	0.00002005
1.36, 	0.00002022
1.361, 	0.00002042
1.362, 	0.00002057
1.363, 	0.00002074
1.364, 	0.00002092
1.365, 	0.00002112
1.366, 	0.00002128
1.367, 	0.00002151
1.368, 	0.00002171
1.369, 	0.000022
1.37, 	0.00002226
1.371, 	0.00002261
1.372, 	0.00002287
1.373, 	0.00002309
1.374, 	0.00002342
1.375, 	0.00002373
1.376, 	0.00002404
1.377, 	0.00002438
1.378, 	0.00002472
1.379, 	0.00002512
1.38, 	0.0000255
1.381, 	0.00002591
1.382, 	0.00002631
1.383, 	0.00002679
1.384, 	0.00002731
1.385, 	0.0000278
1.386, 	0.00002836
1.387, 	0.00002894
1.388, 	0.00002961
1.389, 	0.00003025
1.39, 	0.00003088
1.391, 	0.00003158
1.392, 	0.0000324
1.393, 	0.00003306
1.394, 	0.00003391
1.395, 	0.00003487
1.396, 	0.00003594
1.397, 	0.00003669
1.398, 	0.00003749
1.399, 	0.00003837
1.4, 	0.00003943
1.401, 	0.00004051
1.402, 	0.00004164
1.403, 	0.00004282
1.404, 	0.0000441
1.405, 	0.00004554
1.406, 	0.00004703
1.407, 	0.00004838
1.408, 	0.00004975
1.409, 	0.00005121
1.41, 	0.00005271
1.411, 	0.00005448
1.412, 	0.00005628
1.413, 	0.00005805
1.414, 	0.00005992
1.415, 	0.00006182
1.416, 	0.00006384
1.417, 	0.00006594
1.418, 	0.00006807
1.419, 	0.00007027
1.42, 	0.0000727
1.421, 	0.00007531
1.422, 	0.0000779
1.423, 	0.00008047
1.424, 	0.00008318
1.425, 	0.00008595
1.426, 	0.00008871
1.427, 	0.00009175
1.428, 	0.00009486
1.429, 	0.00009813
1.43, 	0.0001014
1.431, 	0.0001049
1.432, 	0.0001083
1.433, 	0.0001119
1.434, 	0.0001158
1.435, 	0.0001198
1.436, 	0.0001237
1.437, 	0.0001278
1.438, 	0.0001321
1.439, 	0.0001365
1.44, 	0.000141
1.441, 	0.0001456
1.442, 	0.0001505
1.443, 	0.0001555
1.444, 	0.0001607
1.445, 	0.000166
1.446, 	0.0001712
1.447, 	0.0001766
1.448, 	0.0001822
1.449, 	0.0001882
1.45, 	0.0001943
1.451, 	0.0002006
1.452, 	0.0002068
1.453, 	0.0002132
1.454, 	0.0002199
1.455, 	0.0002269
1.456, 	0.0002342
1.457, 	0.0002416
1.458, 	0.0002491
1.459, 	0.0002568
1.46, 	0.0002647
1.461, 	0.0002727
1.462, 	0.0002812
1.463, 	0.0002899
1.464, 	0.0002986
1.465, 	0.0003078
1.466, 	0.0003171
1.467, 	0.0003266
1.468, 	0.0003361
1.469, 	0.0003459
1.47, 	0.0003559
1.471, 	0.0003664
1.472, 	0.0003774
1.473, 	0.0003884
1.474, 	0.0003995
1.475, 	0.0004105
1.476, 	0.000422
1.477, 	0.000434
1.478, 	0.000446
1.479, 	0.0004584
1.48, 	0.0004711
1.481, 	0.0004838
1.482, 	0.0004969
1.483, 	0.00051
1.484, 	0.0005235
1.485, 	0.0005373
1.486, 	0.0005513
1.487, 	0.0005654
1.488, 	0.0005797
1.489, 	0.0005943
1.49, 	0.000609
1.491, 	0.0006239
1.492, 	0.0006392
1.493, 	0.0006547
1.494, 	0.0006702
1.495, 	0.0006862
1.496, 	0.0007018
1.497, 	0.0007175
1.498, 	0.0007331
1.499, 	0.0007498
1.5, 	0.0007665
1.501, 	0.0007835
1.502, 	0.0008008
1.503, 	0.0008182
1.504, 	0.000835
1.505, 	0.0008514
1.506, 	0.0008685
1.507, 	0.0008861
1.508, 	0.0009041
1.509, 	0.0009218
1.51, 	0.0009388
1.511, 	0.0009571
1.512, 	0.000975
1.513, 	0.0009925
1.514, 	0.001011
1.515, 	0.001029
1.516, 	0.001047
1.517, 	0.001064
1.518, 	0.001082
1.519, 	0.001099
1.52, 	0.001116
1.521, 	0.001133
1.522, 	0.00115
1.523, 	0.001167
1.524, 	0.001184
1.525, 	0.001201
1.526, 	0.001219
1.527, 	0.001236
1.528, 	0.001252
1.529, 	0.001268
1.53, 	0.001286
1.531, 	0.001302
1.532, 	0.001318
1.533, 	0.001334
1.534, 	0.001349
1.535, 	0.001365
1.536, 	0.001381
1.537, 	0.001397
1.538, 	0.001413
1.539, 	0.00143
1.54, 	0.001445
1.541, 	0.001459
1.542, 	0.001473
1.543, 	0.001489
1.544, 	0.001504
1.545, 	0.001518
1.546, 	0.001532
1.547, 	0.001546
1.548, 	0.00156
1.549, 	0.001573
1.55, 	0.001587
1.551, 	0.0016
1.552, 	0.001614
1.553, 	0.001628
1.554, 	0.001641
1.555, 	0.001655
1.556, 	0.001669
1.557, 	0.001683
1.558, 	0.001695
1.559, 	0.001706
1.56, 	0.001719
1.561, 	0.001731
1.562, 	0.001743
1.563, 	0.001756
1.564, 	0.001766
1.565, 	0.001774
1.566, 	0.001785
1.567, 	0.001795
1.568, 	0.001806
1.569, 	0.001818
1.57, 	0.00183
1.571, 	0.001842
1.572, 	0.001855
1.573, 	0.001866
1.574, 	0.001877
1.575, 	0.001888
1.576, 	0.001898
1.577, 	0.001911
1.578, 	0.001922
1.579, 	0.001942
1.58, 	0.001953
1.581, 	0.001964
1.582, 	0.001973
1.583, 	0.001981
1.584, 	0.00199
1.585, 	0.002
1.586, 	0.002009
1.587, 	0.002019
1.588, 	0.002026
1.589, 	0.002033
1.59, 	0.002042
1.591, 	0.002051
1.592, 	0.00206
1.593, 	0.002068
1.594, 	0.002077
1.595, 	0.002083
1.596, 	0.002089
1.597, 	0.002096
1.598, 	0.002104
1.599, 	0.002112
1.6, 	0.002119
1.601, 	0.002127
1.602, 	0.002134
1.603, 	0.00214
1.604, 	0.002148
1.605, 	0.002154
1.606, 	0.002162
1.607, 	0.002168
1.608, 	0.002174
1.609, 	0.002181
1.61, 	0.002189
1.611, 	0.002194
1.612, 	0.002201
1.613, 	0.002207
1.614, 	0.002212
1.615, 	0.002218
1.616, 	0.00222
1.617, 	0.002226
1.618, 	0.002234
1.619, 	0.002239
1.62, 	0.002245
1.621, 	0.002251
1.622, 	0.002256
1.623, 	0.002259
1.624, 	0.002265
1.625, 	0.002272
1.626, 	0.002277
1.627, 	0.002281
1.628, 	0.002285
1.629, 	0.002291
1.63, 	0.002294
1.631, 	0.0023
1.632, 	0.002306
1.633, 	0.002306
1.634, 	0.002307
1.635, 	0.002309
1.636, 	0.002313
1.637, 	0.002318
1.638, 	0.002319
1.639, 	0.002321
1.64, 	0.002319
1.641, 	0.002318
1.642, 	0.002317
1.643, 	0.002314
1.644, 	0.002314
1.645, 	0.002315
1.646, 	0.002315
1.647, 	0.002315
1.648, 	0.002316
1.649, 	0.002315
1.65, 	0.002316
1.651, 	0.002316
1.652, 	0.002316
1.653, 	0.002317
1.654, 	0.002316
1.655, 	0.00231
1.656, 	0.002307
1.657, 	0.002305
1.658, 	0.002299
1.659, 	0.002295
1.66, 	0.002294
1.661, 	0.002288
1.662, 	0.002283
1.663, 	0.00228
1.664, 	0.002274
1.665, 	0.002269
1.666, 	0.002265
1.667, 	0.00226
1.668, 	0.002256
1.669, 	0.002252
1.67, 	0.002251
1.671, 	0.002248
1.672, 	0.002243
1.673, 	0.002237
1.674, 	0.002232
1.675, 	0.002226
1.676, 	0.002219
1.677, 	0.002213
1.678, 	0.002208
1.679, 	0.0022
1.68, 	0.002194
1.681, 	0.002187
1.682, 	0.002179
1.683, 	0.00217
1.684, 	0.002163
1.685, 	0.002154