File: Experimental Records and Raw Data/batch2/final400/B2_VARIANCE_400#3_Full-271mV.txt
Jan. 14, 2023   15:45:56
Linear Sweep Voltammetry
File: d:\current work\al_oer\electrochemical test data\batch 2\400\B2_VARIANCE_400#3_Full-271mV.txt
Data Source:  Experiment
Instrument Model:  CHI660E
Header:
Note:

Init E (V) = 1.098

Final E (V) = 1.591

Scan Rate (V/s) = 0.010
Sample Interval (V) = 0.001
Quiet Time (sec) = 2
Sensitivity (A/V) = 0.001
Comp R (ohm) = 6.1

Results:

Channel 1:

Potential/V, Current/A
1.098,   6.567e-5
1.099,   6.257e-5
1.100,   5.811e-5
1.101,   5.410e-5
1.102,   5.070e-5
1.103,   4.770e-5
1.104,   4.517e-5
1.105,   4.299e-5
1.106,   4.100e-5
1.107,   3.911e-5
1.108,   3.754e-5
1.109,   3.619e-5
1.110,   3.497e-5
1.111,   3.377e-5
1.112,   3.270e-5
1.113,   3.178e-5
1.114,   3.091e-5
1.115,   3.015e-5
1.116,   2.944e-5
1.117,   2.877e-5
1.118,   2.822e-5
1.119,   2.771e-5
1.120,   2.714e-5
1.121,   2.671e-5
1.122,   2.625e-5
1.123,   2.580e-5
1.124,   2.537e-5
1.125,   2.495e-5
1.126,   2.462e-5
1.127,   2.425e-5
1.128,   2.396e-5
1.129,   2.376e-5
1.130,   2.343e-5
1.131,   2.321e-5
1.132,   2.303e-5
1.133,   2.277e-5
1.134,   2.260e-5
1.135,   2.237e-5
1.136,   2.221e-5
1.137,   2.207e-5
1.138,   2.190e-5
1.139,   2.176e-5
1.140,   2.163e-5
1.141,   2.149e-5
1.142,   2.134e-5
1.143,   2.122e-5
1.144,   2.111e-5
1.145,   2.103e-5
1.146,   2.090e-5
1.147,   2.082e-5
1.148,   2.076e-5
1.149,   2.064e-5
1.150,   2.062e-5
1.151,   2.053e-5
1.152,   2.044e-5
1.153,   2.042e-5
1.154,   2.035e-5
1.155,   2.028e-5
1.156,   2.023e-5
1.157,   2.014e-5
1.158,   2.010e-5
1.159,   2.004e-5
1.160,   2.001e-5
1.161,   2.000e-5
1.162,   1.990e-5
1.163,   1.990e-5
1.164,   1.992e-5
1.165,   1.982e-5
1.166,   1.983e-5
1.167,   1.981e-5
1.168,   1.977e-5
1.169,   1.979e-5
1.170,   1.979e-5
1.171,   1.975e-5
1.172,   1.978e-5
1.173,   1.974e-5
1.174,   1.973e-5
1.175,   1.972e-5
1.176,   1.975e-5
1.177,   1.977e-5
1.178,   1.968e-5
1.179,   1.970e-5
1.180,   1.974e-5
1.181,   1.968e-5
1.182,   1.973e-5
1.183,   1.973e-5
1.184,   1.970e-5
1.185,   1.975e-5
1.186,   1.974e-5
1.187,   1.974e-5
1.188,   1.978e-5
1.189,   1.977e-5
1.190,   1.981e-5
1.191,   1.975e-5
1.192,   1.980e-5
1.193,   1.984e-5
1.194,   1.979e-5
1.195,   1.983e-5
1.196,   1.991e-5
1.197,   1.983e-5
1.198,   1.987e-5
1.199,   1.993e-5
1.200,   1.992e-5
1.201,   1.999e-5
1.202,   1.999e-5
1.203,   1.998e-5
1.204,   2.006e-5
1.205,   1.999e-5
1.206,   2.002e-5
1.207,   2.005e-5
1.208,   2.008e-5
1.209,   2.011e-5
1.210,   2.009e-5
1.211,   2.012e-5
1.212,   2.016e-5
1.213,   2.016e-5
1.214,   2.024e-5
1.215,   2.027e-5
1.216,   2.026e-5
1.217,   2.034e-5
1.218,   2.034e-5
1.219,   2.039e-5
1.220,   2.043e-5
1.221,   2.040e-5
1.222,   2.047e-5
1.223,   2.051e-5
1.224,   2.050e-5
1.225,   2.058e-5
1.226,   2.054e-5
1.227,   2.059e-5
1.228,   2.062e-5
1.229,   2.061e-5
1.230,   2.068e-5
1.231,   2.069e-5
1.232,   2.066e-5
1.233,   2.074e-5
1.234,   2.076e-5
1.235,   2.079e-5
1.236,   2.085e-5
1.237,   2.086e-5
1.238,   2.089e-5
1.239,   2.093e-5
1.240,   2.096e-5
1.241,   2.104e-5
1.242,   2.098e-5
1.243,   2.107e-5
1.244,   2.110e-5
1.245,   2.109e-5
1.246,   2.116e-5
1.247,   2.122e-5
1.248,   2.120e-5
1.249,   2.129e-5
1.250,   2.128e-5
1.251,   2.131e-5
1.252,   2.136e-5
1.253,   2.132e-5
1.254,   2.136e-5
1.255,   2.137e-5
1.256,   2.141e-5
1.257,   2.148e-5
1.258,   2.142e-5
1.259,   2.151e-5
1.260,   2.155e-5
1.261,   2.155e-5
1.262,   2.162e-5
1.263,   2.169e-5
1.264,   2.169e-5
1.265,   2.174e-5
1.266,   2.171e-5
1.267,   2.177e-5
1.268,   2.184e-5
1.269,   2.180e-5
1.270,   2.186e-5
1.271,   2.188e-5
1.272,   2.193e-5
1.273,   2.201e-5
1.274,   2.194e-5
1.275,   2.199e-5
1.276,   2.206e-5
1.277,   2.205e-5
1.278,   2.213e-5
1.279,   2.215e-5
1.280,   2.215e-5
1.281,   2.220e-5
1.282,   2.225e-5
1.283,   2.226e-5
1.284,   2.232e-5
1.285,   2.237e-5
1.286,   2.240e-5
1.287,   2.242e-5
1.288,   2.242e-5
1.289,   2.249e-5
1.290,   2.250e-5
1.291,   2.264e-5
1.292,   2.266e-5
1.293,   2.264e-5
1.294,   2.269e-5
1.295,   2.271e-5
1.296,   2.270e-5
1.297,   2.278e-5
1.298,   2.283e-5
1.299,   2.288e-5
1.300,   2.291e-5
1.301,   2.291e-5
1.302,   2.293e-5
1.303,   2.303e-5
1.304,   2.309e-5
1.305,   2.317e-5
1.306,   2.322e-5
1.307,   2.321e-5
1.308,   2.325e-5
1.309,   2.323e-5
1.310,   2.333e-5
1.311,   2.341e-5
1.312,   2.344e-5
1.313,   2.350e-5
1.314,   2.349e-5
1.315,   2.362e-5
1.316,   2.365e-5
1.317,   2.364e-5
1.318,   2.374e-5
1.319,   2.382e-5
1.320,   2.388e-5
1.321,   2.392e-5
1.322,   2.393e-5
1.323,   2.405e-5
1.324,   2.414e-5
1.325,   2.410e-5
1.326,   2.419e-5
1.327,   2.423e-5
1.328,   2.428e-5
1.329,   2.439e-5
1.330,   2.442e-5
1.331,   2.446e-5
1.332,   2.457e-5
1.333,   2.458e-5
1.334,   2.471e-5
1.335,   2.479e-5
1.336,   2.488e-5
1.337,   2.497e-5
1.338,   2.502e-5
1.339,   2.508e-5
1.340,   2.515e-5
1.341,   2.517e-5
1.342,   2.530e-5
1.343,   2.542e-5
1.344,   2.552e-5
1.345,   2.565e-5
1.346,   2.574e-5
1.347,   2.588e-5
1.348,   2.600e-5
1.349,   2.613e-5
1.350,   2.625e-5
1.351,   2.634e-5
1.352,   2.644e-5
1.353,   2.659e-5
1.354,   2.670e-5
1.355,   2.685e-5
1.356,   2.704e-5
1.357,   2.718e-5
1.358,   2.736e-5
1.359,   2.754e-5
1.360,   2.766e-5
1.361,   2.792e-5
1.362,   2.812e-5
1.363,   2.830e-5
1.364,   2.845e-5
1.365,   2.867e-5
1.366,   2.892e-5
1.367,   2.913e-5
1.368,   2.939e-5
1.369,   2.973e-5
1.370,   2.991e-5
1.371,   3.021e-5
1.372,   3.056e-5
1.373,   3.077e-5
1.374,   3.113e-5
1.375,   3.150e-5
1.376,   3.181e-5
1.377,   3.221e-5
1.378,   3.256e-5
1.379,   3.297e-5
1.380,   3.340e-5
1.381,   3.376e-5
1.382,   3.425e-5
1.383,   3.472e-5
1.384,   3.523e-5
1.385,   3.574e-5
1.386,   3.625e-5
1.387,   3.691e-5
1.388,   3.748e-5
1.389,   3.798e-5
1.390,   3.869e-5
1.391,   3.938e-5
1.392,   4.021e-5
1.393,   4.088e-5
1.394,   4.162e-5
1.395,   4.245e-5
1.396,   4.331e-5
1.397,   4.429e-5
1.398,   4.531e-5
1.399,   4.629e-5
1.400,   4.743e-5
1.401,   4.863e-5
1.402,   4.978e-5
1.403,   5.105e-5
1.404,   5.241e-5
1.405,   5.373e-5
1.406,   5.518e-5
1.407,   5.696e-5
1.408,   5.846e-5
1.409,   6.012e-5
1.410,   6.190e-5
1.411,   6.383e-5
1.412,   6.585e-5
1.413,   6.790e-5
1.414,   7.016e-5
1.415,   7.239e-5
1.416,   7.484e-5
1.417,   7.753e-5
1.418,   8.020e-5
1.419,   8.312e-5
1.420,   8.609e-5
1.421,   8.911e-5
1.422,   9.241e-5
1.423,   9.579e-5
1.424,   9.931e-5
1.425,   1.031e-4
1.426,   1.070e-4
1.427,   1.112e-4
1.428,   1.155e-4
1.429,   1.200e-4
1.430,   1.248e-4
1.431,   1.297e-4
1.432,   1.350e-4
1.433,   1.405e-4
1.434,   1.461e-4
1.435,   1.521e-4
1.436,   1.584e-4
1.437,   1.648e-4
1.438,   1.717e-4
1.439,   1.789e-4
1.440,   1.862e-4
1.441,   1.939e-4
1.442,   2.019e-4
1.443,   2.104e-4
1.444,   2.191e-4
1.445,   2.282e-4
1.446,   2.379e-4
1.447,   2.478e-4
1.448,   2.582e-4
1.449,   2.691e-4
1.450,   2.803e-4
1.451,   2.922e-4
1.452,   3.044e-4
1.453,   3.170e-4
1.454,   3.303e-4
1.455,   3.441e-4
1.456,   3.583e-4
1.457,   3.731e-4
1.458,   3.883e-4
1.459,   4.045e-4
1.460,   4.211e-4
1.461,   4.385e-4
1.462,   4.565e-4
1.463,   4.751e-4
1.464,   4.945e-4
1.465,   5.145e-4
1.466,   5.353e-4
1.467,   5.572e-4
1.468,   5.795e-4
1.469,   6.027e-4
1.470,   6.265e-4
1.471,   6.510e-4
1.472,   6.763e-4
1.473,   7.027e-4
1.474,   7.299e-4
1.475,   7.580e-4
1.476,   7.869e-4
1.477,   8.169e-4
1.478,   8.478e-4
1.479,   8.795e-4
1.480,   9.122e-4
1.481,   9.461e-4
1.482,   9.811e-4
1.483,   1.019e-3
1.484,   1.059e-3
1.485,   1.098e-3
1.486,   1.138e-3
1.487,   1.178e-3
1.488,   1.220e-3
1.489,   1.263e-3
1.490,   1.307e-3
1.491,   1.353e-3
1.492,   1.399e-3
1.493,   1.447e-3
1.494,   1.496e-3
1.495,   1.545e-3
1.496,   1.597e-3
1.497,   1.650e-3
1.498,   1.708e-3
1.499,   1.765e-3
1.500,   1.822e-3
1.501,   1.880e-3
1.502,   1.940e-3
1.503,   2.001e-3
1.504,   2.063e-3
1.505,   2.127e-3
1.506,   2.187e-3
1.507,   2.251e-3
1.508,   2.318e-3
1.509,   2.386e-3
1.510,   2.455e-3
1.511,   2.526e-3
1.512,   2.599e-3
1.513,   2.673e-3
1.514,   2.747e-3
1.515,   2.823e-3
1.516,   2.902e-3
1.517,   2.984e-3
1.518,   3.066e-3
1.519,   3.147e-3
1.520,   3.231e-3
1.521,   3.315e-3
1.522,   3.397e-3
1.523,   3.478e-3
1.524,   3.572e-3
1.525,   3.664e-3
1.526,   3.821e-3
1.527,   3.952e-3
1.528,   4.049e-3
1.529,   4.145e-3
1.530,   4.244e-3
1.531,   4.344e-3
1.532,   4.445e-3
1.533,   4.550e-3
1.534,   4.653e-3
1.535,   4.751e-3
1.536,   4.858e-3
1.537,   4.966e-3
1.538,   5.071e-3
1.539,   5.176e-3
1.540,   5.295e-3
1.541,   5.417e-3
1.542,   5.528e-3
1.543,   5.643e-3
1.544,   5.774e-3
1.545,   5.885e-3
1.546,   5.996e-3
1.547,   6.116e-3
1.548,   6.247e-3
1.549,   6.378e-3
1.550,   6.525e-3
1.551,   6.650e-3
1.552,   6.917e-3
1.553,   7.459e-3
1.554,   7.677e-3
1.555,   7.797e-3
1.556,   7.920e-3
1.557,   8.047e-3
1.558,   8.177e-3
1.559,   8.302e-3
1.560,   8.431e-3
1.561,   8.607e-3
1.562,   8.754e-3
1.563,   8.895e-3
1.564,   9.024e-3
1.565,   9.179e-3
1.566,   9.393e-3
1.567,   9.698e-3
1.568,   9.918e-3
1.569,   1.004e-2
1.570,   1.006e-2
1.571,   1.006e-2
1.572,   1.006e-2
1.573,   1.006e-2
1.574,   1.006e-2
1.575,   1.006e-2
1.576,   1.006e-2
1.577,   1.006e-2
1.578,   1.006e-2
1.579,   1.006e-2
1.580,   1.006e-2
1.581,   1.006e-2
1.582,   1.006e-2
1.583,   1.006e-2
1.584,   1.006e-2
1.585,   1.006e-2
1.586,   1.006e-2
1.587,   1.006e-2
1.588,   1.006e-2
1.589,   1.006e-2
1.590,   1.006e-2
1.591,   1.006e-2