File: Experimental Records, Raw Data, and Supplementary Notes and Figures/batch4/final400/B4_BEST_400_#4_High_Quality(#20)-198mV.txt
Mar. 27, 2023   15:38:27
Linear Sweep Voltammetry
File: d:\current work\al_oer\electrochemical test data\batch 4\400\B4_BEST_400_#4_High_Quality(#20)-198mV.txt
Data Source:  Experiment
Instrument Model:  CHI660E
Header:
Note:

Init E (V) = 1.047

Final E (V) = 1.446

Scan Rate (V/s) = 0.010
Sample Interval (V) = 0.001
Quiet Time (sec) = 2
Sensitivity (A/V) = 0.001
Comp R (ohm) = 5.1

Results:

Channel 1:

Potential/V, Current/A
1.047,   4.064e-5
1.048,   4.429e-5
1.049,   4.255e-5
1.050,   4.068e-5
1.051,   3.916e-5
1.052,   3.782e-5
1.053,   3.663e-5
1.054,   3.561e-5
1.055,   3.463e-5
1.056,   3.366e-5
1.057,   3.295e-5
1.058,   3.216e-5
1.059,   3.147e-5
1.060,   3.088e-5
1.061,   3.031e-5
1.062,   2.985e-5
1.063,   2.932e-5
1.064,   2.889e-5
1.065,   2.855e-5
1.066,   2.809e-5
1.067,   2.794e-5
1.068,   2.767e-5
1.069,   2.724e-5
1.070,   2.702e-5
1.071,   2.672e-5
1.072,   2.651e-5
1.073,   2.634e-5
1.074,   2.609e-5
1.075,   2.592e-5
1.076,   2.580e-5
1.077,   2.557e-5
1.078,   2.553e-5
1.079,   2.530e-5
1.080,   2.524e-5
1.081,   2.524e-5
1.082,   2.499e-5
1.083,   2.494e-5
1.084,   2.486e-5
1.085,   2.470e-5
1.086,   2.476e-5
1.087,   2.462e-5
1.088,   2.456e-5
1.089,   2.456e-5
1.090,   2.447e-5
1.091,   2.447e-5
1.092,   2.444e-5
1.093,   2.443e-5
1.094,   2.441e-5
1.095,   2.433e-5
1.096,   2.435e-5
1.097,   2.440e-5
1.098,   2.431e-5
1.099,   2.436e-5
1.100,   2.438e-5
1.101,   2.433e-5
1.102,   2.443e-5
1.103,   2.436e-5
1.104,   2.440e-5
1.105,   2.452e-5
1.106,   2.449e-5
1.107,   2.452e-5
1.108,   2.450e-5
1.109,   2.453e-5
1.110,   2.463e-5
1.111,   2.460e-5
1.112,   2.468e-5
1.113,   2.482e-5
1.114,   2.466e-5
1.115,   2.480e-5
1.116,   2.489e-5
1.117,   2.486e-5
1.118,   2.507e-5
1.119,   2.506e-5
1.120,   2.501e-5
1.121,   2.515e-5
1.122,   2.512e-5
1.123,   2.526e-5
1.124,   2.529e-5
1.125,   2.530e-5
1.126,   2.544e-5
1.127,   2.537e-5
1.128,   2.550e-5
1.129,   2.566e-5
1.130,   2.557e-5
1.131,   2.576e-5
1.132,   2.584e-5
1.133,   2.576e-5
1.134,   2.597e-5
1.135,   2.595e-5
1.136,   2.602e-5
1.137,   2.615e-5
1.138,   2.615e-5
1.139,   2.624e-5
1.140,   2.629e-5
1.141,   2.633e-5
1.142,   2.649e-5
1.143,   2.641e-5
1.144,   2.658e-5
1.145,   2.666e-5
1.146,   2.661e-5
1.147,   2.674e-5
1.148,   2.682e-5
1.149,   2.680e-5
1.150,   2.699e-5
1.151,   2.697e-5
1.152,   2.700e-5
1.153,   2.718e-5
1.154,   2.711e-5
1.155,   2.724e-5
1.156,   2.725e-5
1.157,   2.734e-5
1.158,   2.745e-5
1.159,   2.731e-5
1.160,   2.742e-5
1.161,   2.759e-5
1.162,   2.749e-5
1.163,   2.768e-5
1.164,   2.771e-5
1.165,   2.766e-5
1.166,   2.781e-5
1.167,   2.777e-5
1.168,   2.783e-5
1.169,   2.794e-5
1.170,   2.789e-5
1.171,   2.803e-5
1.172,   2.805e-5
1.173,   2.801e-5
1.174,   2.814e-5
1.175,   2.805e-5
1.176,   2.813e-5
1.177,   2.827e-5
1.178,   2.819e-5
1.179,   2.831e-5
1.180,   2.828e-5
1.181,   2.829e-5
1.182,   2.844e-5
1.183,   2.845e-5
1.184,   2.836e-5
1.185,   2.849e-5
1.186,   2.838e-5
1.187,   2.847e-5
1.188,   2.853e-5
1.189,   2.847e-5
1.190,   2.861e-5
1.191,   2.854e-5
1.192,   2.857e-5
1.193,   2.868e-5
1.194,   2.852e-5
1.195,   2.872e-5
1.196,   2.873e-5
1.197,   2.863e-5
1.198,   2.879e-5
1.199,   2.864e-5
1.200,   2.869e-5
1.201,   2.882e-5
1.202,   2.873e-5
1.203,   2.879e-5
1.204,   2.876e-5
1.205,   2.880e-5
1.206,   2.889e-5
1.207,   2.877e-5
1.208,   2.890e-5
1.209,   2.896e-5
1.210,   2.874e-5
1.211,   2.886e-5
1.212,   2.891e-5
1.213,   2.883e-5
1.214,   2.895e-5
1.215,   2.900e-5
1.216,   2.893e-5
1.217,   2.897e-5
1.218,   2.892e-5
1.219,   2.900e-5
1.220,   2.899e-5
1.221,   2.905e-5
1.222,   2.909e-5
1.223,   2.901e-5
1.224,   2.904e-5
1.225,   2.910e-5
1.226,   2.897e-5
1.227,   2.920e-5
1.228,   2.911e-5
1.229,   2.913e-5
1.230,   2.922e-5
1.231,   2.913e-5
1.232,   2.917e-5
1.233,   2.932e-5
1.234,   2.929e-5
1.235,   2.925e-5
1.236,   2.929e-5
1.237,   2.928e-5
1.238,   2.939e-5
1.239,   2.929e-5
1.240,   2.939e-5
1.241,   2.950e-5
1.242,   2.937e-5
1.243,   2.952e-5
1.244,   2.954e-5
1.245,   2.947e-5
1.246,   2.969e-5
1.247,   2.960e-5
1.248,   2.961e-5
1.249,   2.981e-5
1.250,   2.973e-5
1.251,   2.979e-5
1.252,   2.986e-5
1.253,   2.986e-5
1.254,   3.011e-5
1.255,   2.994e-5
1.256,   3.005e-5
1.257,   3.021e-5
1.258,   3.006e-5
1.259,   3.031e-5
1.260,   3.037e-5
1.261,   3.032e-5
1.262,   3.052e-5
1.263,   3.046e-5
1.264,   3.052e-5
1.265,   3.080e-5
1.266,   3.069e-5
1.267,   3.081e-5
1.268,   3.094e-5
1.269,   3.096e-5
1.270,   3.119e-5
1.271,   3.117e-5
1.272,   3.155e-5
1.273,   3.164e-5
1.274,   3.147e-5
1.275,   3.167e-5
1.276,   3.181e-5
1.277,   3.183e-5
1.278,   3.205e-5
1.279,   3.211e-5
1.280,   3.225e-5
1.281,   3.248e-5
1.282,   3.257e-5
1.283,   3.278e-5
1.284,   3.285e-5
1.285,   3.312e-5
1.286,   3.332e-5
1.287,   3.332e-5
1.288,   3.354e-5
1.289,   3.388e-5
1.290,   3.383e-5
1.291,   3.422e-5
1.292,   3.440e-5
1.293,   3.456e-5
1.294,   3.496e-5
1.295,   3.509e-5
1.296,   3.524e-5
1.297,   3.569e-5
1.298,   3.583e-5
1.299,   3.616e-5
1.300,   3.641e-5
1.301,   3.662e-5
1.302,   3.710e-5
1.303,   3.723e-5
1.304,   3.759e-5
1.305,   3.798e-5
1.306,   3.809e-5
1.307,   3.859e-5
1.308,   3.893e-5
1.309,   3.924e-5
1.310,   3.989e-5
1.311,   4.026e-5
1.312,   4.052e-5
1.313,   4.122e-5
1.314,   4.157e-5
1.315,   4.214e-5
1.316,   4.261e-5
1.317,   4.315e-5
1.318,   4.380e-5
1.319,   4.425e-5
1.320,   4.496e-5
1.321,   4.573e-5
1.322,   4.618e-5
1.323,   4.708e-5
1.324,   4.783e-5
1.325,   4.843e-5
1.326,   4.940e-5
1.327,   5.007e-5
1.328,   5.095e-5
1.329,   5.194e-5
1.330,   5.287e-5
1.331,   5.382e-5
1.332,   5.488e-5
1.333,   5.588e-5
1.334,   5.714e-5
1.335,   5.805e-5
1.336,   5.953e-5
1.337,   6.094e-5
1.338,   6.196e-5
1.339,   6.349e-5
1.340,   6.499e-5
1.341,   6.645e-5
1.342,   6.832e-5
1.343,   6.981e-5
1.344,   7.148e-5
1.345,   7.343e-5
1.346,   7.527e-5
1.347,   7.745e-5
1.348,   7.946e-5
1.349,   8.190e-5
1.350,   8.418e-5
1.351,   8.651e-5
1.352,   8.916e-5
1.353,   9.185e-5
1.354,   9.434e-5
1.355,   9.749e-5
1.356,   1.006e-4
1.357,   1.036e-4
1.358,   1.072e-4
1.359,   1.105e-4
1.360,   1.143e-4
1.361,   1.184e-4
1.362,   1.224e-4
1.363,   1.267e-4
1.364,   1.310e-4
1.365,   1.357e-4
1.366,   1.408e-4
1.367,   1.456e-4
1.368,   1.511e-4
1.369,   1.571e-4
1.370,   1.628e-4
1.371,   1.692e-4
1.372,   1.756e-4
1.373,   1.824e-4
1.374,   1.898e-4
1.375,   1.971e-4
1.376,   2.050e-4
1.377,   2.135e-4
1.378,   2.219e-4
1.379,   2.313e-4
1.380,   2.409e-4
1.381,   2.509e-4
1.382,   2.617e-4
1.383,   2.724e-4
1.384,   2.841e-4
1.385,   2.964e-4
1.386,   3.087e-4
1.387,   3.225e-4
1.388,   3.366e-4
1.389,   3.509e-4
1.390,   3.664e-4
1.391,   3.823e-4
1.392,   3.993e-4
1.393,   4.170e-4
1.394,   4.356e-4
1.395,   4.546e-4
1.396,   4.747e-4
1.397,   4.957e-4
1.398,   5.179e-4
1.399,   5.405e-4
1.400,   5.650e-4
1.401,   5.902e-4
1.402,   6.164e-4
1.403,   6.442e-4
1.404,   6.724e-4
1.405,   7.020e-4
1.406,   7.336e-4
1.407,   7.659e-4
1.408,   7.994e-4
1.409,   8.350e-4
1.410,   8.709e-4
1.411,   9.110e-4
1.412,   9.503e-4
1.413,   9.918e-4
1.414,   1.036e-3
1.415,   1.080e-3
1.416,   1.128e-3
1.417,   1.177e-3
1.418,   1.228e-3
1.419,   1.281e-3
1.420,   1.334e-3
1.421,   1.390e-3
1.422,   1.451e-3
1.423,   1.511e-3
1.424,   1.572e-3
1.425,   1.640e-3
1.426,   1.708e-3
1.427,   1.776e-3
1.428,   1.849e-3
1.429,   1.929e-3
1.430,   2.007e-3
1.431,   2.090e-3
1.432,   2.170e-3
1.433,   2.257e-3
1.434,   2.349e-3
1.435,   2.440e-3
1.436,   2.534e-3
1.437,   2.633e-3
1.438,   2.740e-3
1.439,   2.848e-3
1.440,   2.952e-3
1.441,   3.057e-3
1.442,   3.183e-3
1.443,   3.293e-3
1.444,   3.401e-3
1.445,   3.533e-3
1.446,   3.653e-3