File: Experimental Records, Raw Data, and Supplementary Notes and Figures/batch4/final400/B4_BEST_400_#7_Full-233mV.txt
Nov. 30, 2022   14:31:48
Linear Sweep Voltammetry
File: d:\current work\al_oer\electrochemical test data\batch 4\400\B4_BEST_400_#7_Full-233mV.txt
Data Source:  Experiment
Instrument Model:  CHI660E
Header:
Note:

Init E (V) = 1.097

Final E (V) = 1.596

Scan Rate (V/s) = 0.010
Sample Interval (V) = 0.001
Quiet Time (sec) = 2
Sensitivity (A/V) = 0.001
Comp R (ohm) = 7.4

Results:

Channel 1:
Ep = 1.312V
ip = 1.004e-2A
Ah = 5.301e-2C

Potential/V, Current/A
1.097,   2.423e-5
1.098,   2.541e-5
1.099,   2.420e-5
1.100,   2.300e-5
1.101,   2.200e-5
1.102,   2.106e-5
1.103,   2.023e-5
1.104,   1.950e-5
1.105,   1.884e-5
1.106,   1.826e-5
1.107,   1.773e-5
1.108,   1.718e-5
1.109,   1.674e-5
1.110,   1.635e-5
1.111,   1.595e-5
1.112,   1.566e-5
1.113,   1.528e-5
1.114,   1.499e-5
1.115,   1.474e-5
1.116,   1.444e-5
1.117,   1.428e-5
1.118,   1.408e-5
1.119,   1.379e-5
1.120,   1.366e-5
1.121,   1.348e-5
1.122,   1.332e-5
1.123,   1.314e-5
1.124,   1.302e-5
1.125,   1.287e-5
1.126,   1.274e-5
1.127,   1.262e-5
1.128,   1.256e-5
1.129,   1.239e-5
1.130,   1.232e-5
1.131,   1.226e-5
1.132,   1.211e-5
1.133,   1.205e-5
1.134,   1.197e-5
1.135,   1.188e-5
1.136,   1.181e-5
1.137,   1.174e-5
1.138,   1.167e-5
1.139,   1.165e-5
1.140,   1.153e-5
1.141,   1.149e-5
1.142,   1.144e-5
1.143,   1.141e-5
1.144,   1.139e-5
1.145,   1.130e-5
1.146,   1.128e-5
1.147,   1.126e-5
1.148,   1.118e-5
1.149,   1.115e-5
1.150,   1.114e-5
1.151,   1.116e-5
1.152,   1.105e-5
1.153,   1.101e-5
1.154,   1.101e-5
1.155,   1.104e-5
1.156,   1.101e-5
1.157,   1.097e-5
1.158,   1.094e-5
1.159,   1.091e-5
1.160,   1.092e-5
1.161,   1.088e-5
1.162,   1.089e-5
1.163,   1.088e-5
1.164,   1.083e-5
1.165,   1.083e-5
1.166,   1.087e-5
1.167,   1.083e-5
1.168,   1.085e-5
1.169,   1.083e-5
1.170,   1.082e-5
1.171,   1.086e-5
1.172,   1.081e-5
1.173,   1.079e-5
1.174,   1.080e-5
1.175,   1.078e-5
1.176,   1.082e-5
1.177,   1.080e-5
1.178,   1.081e-5
1.179,   1.080e-5
1.180,   1.079e-5
1.181,   1.081e-5
1.182,   1.081e-5
1.183,   1.080e-5
1.184,   1.084e-5
1.185,   1.082e-5
1.186,   1.076e-5
1.187,   1.082e-5
1.188,   1.080e-5
1.189,   1.083e-5
1.190,   1.083e-5
1.191,   1.086e-5
1.192,   1.090e-5
1.193,   1.085e-5
1.194,   1.089e-5
1.195,   1.091e-5
1.196,   1.089e-5
1.197,   1.090e-5
1.198,   1.090e-5
1.199,   1.093e-5
1.200,   1.091e-5
1.201,   1.092e-5
1.202,   1.093e-5
1.203,   1.098e-5
1.204,   1.095e-5
1.205,   1.094e-5
1.206,   1.096e-5
1.207,   1.100e-5
1.208,   1.101e-5
1.209,   1.097e-5
1.210,   1.097e-5
1.211,   1.105e-5
1.212,   1.101e-5
1.213,   1.105e-5
1.214,   1.107e-5
1.215,   1.104e-5
1.216,   1.110e-5
1.217,   1.106e-5
1.218,   1.106e-5
1.219,   1.112e-5
1.220,   1.107e-5
1.221,   1.117e-5
1.222,   1.115e-5
1.223,   1.114e-5
1.224,   1.117e-5
1.225,   1.113e-5
1.226,   1.117e-5
1.227,   1.125e-5
1.228,   1.116e-5
1.229,   1.122e-5
1.230,   1.124e-5
1.231,   1.123e-5
1.232,   1.129e-5
1.233,   1.126e-5
1.234,   1.125e-5
1.235,   1.129e-5
1.236,   1.126e-5
1.237,   1.130e-5
1.238,   1.131e-5
1.239,   1.135e-5
1.240,   1.141e-5
1.241,   1.133e-5
1.242,   1.138e-5
1.243,   1.136e-5
1.244,   1.138e-5
1.245,   1.147e-5
1.246,   1.145e-5
1.247,   1.139e-5
1.248,   1.148e-5
1.249,   1.145e-5
1.250,   1.147e-5
1.251,   1.152e-5
1.252,   1.151e-5
1.253,   1.153e-5
1.254,   1.155e-5
1.255,   1.155e-5
1.256,   1.160e-5
1.257,   1.154e-5
1.258,   1.158e-5
1.259,   1.166e-5
1.260,   1.162e-5
1.261,   1.164e-5
1.262,   1.169e-5
1.263,   1.166e-5
1.264,   1.173e-5
1.265,   1.171e-5
1.266,   1.170e-5
1.267,   1.176e-5
1.268,   1.176e-5
1.269,   1.177e-5
1.270,   1.182e-5
1.271,   1.180e-5
1.272,   1.188e-5
1.273,   1.182e-5
1.274,   1.184e-5
1.275,   1.192e-5
1.276,   1.190e-5
1.277,   1.197e-5
1.278,   1.197e-5
1.279,   1.197e-5
1.280,   1.202e-5
1.281,   1.200e-5
1.282,   1.204e-5
1.283,   1.209e-5
1.284,   1.212e-5
1.285,   1.213e-5
1.286,   1.213e-5
1.287,   1.219e-5
1.288,   1.225e-5
1.289,   1.220e-5
1.290,   1.226e-5
1.291,   1.233e-5
1.292,   1.231e-5
1.293,   1.237e-5
1.294,   1.238e-5
1.295,   1.240e-5
1.296,   1.247e-5
1.297,   1.249e-5
1.298,   1.250e-5
1.299,   1.260e-5
1.300,   1.259e-5
1.301,   1.264e-5
1.302,   1.268e-5
1.303,   1.274e-5
1.304,   1.279e-5
1.305,   1.277e-5
1.306,   1.284e-5
1.307,   1.293e-5
1.308,   1.290e-5
1.309,   1.301e-5
1.310,   1.310e-5
1.311,   1.306e-5
1.312,   1.318e-5
1.313,   1.316e-5
1.314,   1.317e-5
1.315,   1.331e-5
1.316,   1.336e-5
1.317,   1.344e-5
1.318,   1.348e-5
1.319,   1.352e-5
1.320,   1.361e-5
1.321,   1.363e-5
1.322,   1.380e-5
1.323,   1.386e-5
1.324,   1.384e-5
1.325,   1.396e-5
1.326,   1.404e-5
1.327,   1.410e-5
1.328,   1.422e-5
1.329,   1.427e-5
1.330,   1.434e-5
1.331,   1.444e-5
1.332,   1.456e-5
1.333,   1.466e-5
1.334,   1.478e-5
1.335,   1.491e-5
1.336,   1.500e-5
1.337,   1.506e-5
1.338,   1.520e-5
1.339,   1.538e-5
1.340,   1.543e-5
1.341,   1.557e-5
1.342,   1.577e-5
1.343,   1.588e-5
1.344,   1.608e-5
1.345,   1.619e-5
1.346,   1.639e-5
1.347,   1.658e-5
1.348,   1.673e-5
1.349,   1.694e-5
1.350,   1.711e-5
1.351,   1.728e-5
1.352,   1.756e-5
1.353,   1.776e-5
1.354,   1.805e-5
1.355,   1.828e-5
1.356,   1.848e-5
1.357,   1.878e-5
1.358,   1.912e-5
1.359,   1.940e-5
1.360,   1.980e-5
1.361,   2.017e-5
1.362,   2.048e-5
1.363,   2.088e-5
1.364,   2.125e-5
1.365,   2.170e-5
1.366,   2.212e-5
1.367,   2.260e-5
1.368,   2.319e-5
1.369,   2.372e-5
1.370,   2.431e-5
1.371,   2.495e-5
1.372,   2.552e-5
1.373,   2.632e-5
1.374,   2.713e-5
1.375,   2.782e-5
1.376,   2.873e-5
1.377,   2.953e-5
1.378,   3.048e-5
1.379,   3.158e-5
1.380,   3.265e-5
1.381,   3.383e-5
1.382,   3.507e-5
1.383,   3.637e-5
1.384,   3.778e-5
1.385,   3.922e-5
1.386,   4.086e-5
1.387,   4.261e-5
1.388,   4.436e-5
1.389,   4.640e-5
1.390,   4.847e-5
1.391,   5.069e-5
1.392,   5.312e-5
1.393,   5.567e-5
1.394,   5.834e-5
1.395,   6.128e-5
1.396,   6.435e-5
1.397,   6.768e-5
1.398,   7.118e-5
1.399,   7.502e-5
1.400,   7.912e-5
1.401,   8.328e-5
1.402,   8.780e-5
1.403,   9.273e-5
1.404,   9.766e-5
1.405,   1.032e-4
1.406,   1.090e-4
1.407,   1.151e-4
1.408,   1.216e-4
1.409,   1.285e-4
1.410,   1.357e-4
1.411,   1.436e-4
1.412,   1.518e-4
1.413,   1.606e-4
1.414,   1.697e-4
1.415,   1.793e-4
1.416,   1.895e-4
1.417,   2.001e-4
1.418,   2.115e-4
1.419,   2.236e-4
1.420,   2.360e-4
1.421,   2.494e-4
1.422,   2.634e-4
1.423,   2.780e-4
1.424,   2.933e-4
1.425,   3.094e-4
1.426,   3.265e-4
1.427,   3.443e-4
1.428,   3.628e-4
1.429,   3.823e-4
1.430,   4.029e-4
1.431,   4.244e-4
1.432,   4.470e-4
1.433,   4.703e-4
1.434,   4.948e-4
1.435,   5.202e-4
1.436,   5.470e-4
1.437,   5.751e-4
1.438,   6.041e-4
1.439,   6.341e-4
1.440,   6.659e-4
1.441,   6.991e-4
1.442,   7.334e-4
1.443,   7.683e-4
1.444,   8.055e-4
1.445,   8.438e-4
1.446,   8.843e-4
1.447,   9.251e-4
1.448,   9.688e-4
1.449,   1.012e-3
1.450,   1.058e-3
1.451,   1.106e-3
1.452,   1.155e-3
1.453,   1.206e-3
1.454,   1.278e-3
1.455,   1.340e-3
1.456,   1.394e-3
1.457,   1.450e-3
1.458,   1.510e-3
1.459,   1.573e-3
1.460,   1.637e-3
1.461,   1.701e-3
1.462,   1.766e-3
1.463,   1.835e-3
1.464,   1.904e-3
1.465,   2.026e-3
1.466,   2.120e-3
1.467,   2.187e-3
1.468,   2.261e-3
1.469,   2.343e-3
1.470,   2.459e-3
1.471,   2.561e-3
1.472,   2.643e-3
1.473,   2.724e-3
1.474,   2.803e-3
1.475,   2.932e-3
1.476,   3.120e-3
1.477,   3.206e-3
1.478,   3.303e-3
1.479,   3.432e-3
1.480,   3.529e-3
1.481,   3.722e-3
1.482,   3.951e-3
1.483,   4.047e-3
1.484,   4.110e-3
1.485,   4.182e-3
1.486,   4.295e-3
1.487,   4.705e-3
1.488,   4.926e-3
1.489,   5.052e-3
1.490,   5.122e-3
1.491,   5.363e-3
1.492,   5.666e-3
1.493,   5.715e-3
1.494,   5.943e-3
1.495,   6.379e-3
1.496,   6.546e-3
1.497,   6.667e-3
1.498,   6.918e-3
1.499,   7.517e-3
1.500,   7.821e-3
1.501,   7.834e-3
1.502,   8.252e-3
1.503,   8.616e-3
1.504,   9.076e-3
1.505,   8.967e-3
1.506,   9.483e-3
1.507,   9.994e-3
1.508,   1.006e-2
1.509,   1.006e-2
1.510,   1.006e-2
1.511,   1.006e-2
1.512,   1.006e-2
1.513,   1.006e-2
1.514,   1.006e-2
1.515,   1.006e-2
1.516,   1.006e-2
1.517,   1.006e-2
1.518,   1.006e-2
1.519,   1.006e-2
1.520,   1.006e-2
1.521,   1.006e-2
1.522,   1.006e-2
1.523,   1.006e-2
1.524,   1.006e-2
1.525,   1.006e-2
1.526,   1.006e-2
1.527,   1.006e-2
1.528,   1.006e-2
1.529,   1.006e-2
1.530,   1.006e-2
1.531,   1.006e-2
1.532,   1.006e-2
1.533,   1.006e-2
1.534,   1.006e-2
1.535,   1.006e-2
1.536,   1.006e-2
1.537,   1.006e-2
1.538,   1.006e-2
1.539,   1.006e-2
1.540,   1.006e-2
1.541,   1.006e-2
1.542,   1.006e-2
1.543,   1.006e-2
1.544,   1.006e-2
1.545,   1.006e-2
1.546,   1.006e-2
1.547,   1.006e-2
1.548,   1.006e-2
1.549,   1.006e-2
1.550,   1.006e-2
1.551,   1.006e-2
1.552,   1.006e-2
1.553,   1.006e-2
1.554,   1.006e-2
1.555,   1.006e-2
1.556,   1.006e-2
1.557,   1.006e-2
1.558,   1.006e-2
1.559,   1.006e-2
1.560,   1.006e-2
1.561,   1.006e-2
1.562,   1.006e-2
1.563,   1.006e-2
1.564,   1.006e-2
1.565,   1.006e-2
1.566,   1.006e-2
1.567,   1.006e-2
1.568,   1.006e-2
1.569,   1.006e-2
1.570,   1.006e-2
1.571,   1.006e-2
1.572,   1.006e-2
1.573,   1.006e-2
1.574,   1.006e-2
1.575,   1.006e-2
1.576,   1.006e-2
1.577,   1.006e-2
1.578,   1.006e-2
1.579,   1.006e-2
1.580,   1.006e-2
1.581,   1.006e-2
1.582,   1.006e-2
1.583,   1.006e-2
1.584,   1.006e-2
1.585,   1.006e-2
1.586,   1.006e-2
1.587,   1.006e-2
1.588,   1.006e-2
1.589,   1.006e-2
1.590,   1.006e-2
1.591,   1.006e-2
1.592,   1.006e-2
1.593,   1.006e-2
1.594,   1.006e-2
1.595,   1.006e-2
1.596,   1.006e-2