File: Experimental Records, Raw Data, and Supplementary Notes and Figures/batch4/final400/B4_BEST_400_#6_High_Quality(#22)-220mV.txt
Mar. 26, 2023   15:45:32
Linear Sweep Voltammetry
File: d:\current work\al_oer\electrochemical test data\batch 4\400\B4_BEST_400_#6_High_Quality(#22)-220mV.txt
Data Source:  Experiment
Instrument Model:  CHI660E
Header:
Note:

Init E (V) = 1.067

Final E (V) = 1.466

Scan Rate (V/s) = 0.010
Sample Interval (V) = 0.001
Quiet Time (sec) = 2
Sensitivity (A/V) = 0.001
Comp R (ohm) = 5.1

Results:

Channel 1:

Potential/V, Current/A
1.067,   4.105e-5
1.068,   4.458e-5
1.069,   4.278e-5
1.070,   4.090e-5
1.071,   3.930e-5
1.072,   3.791e-5
1.073,   3.676e-5
1.074,   3.569e-5
1.075,   3.468e-5
1.076,   3.370e-5
1.077,   3.295e-5
1.078,   3.212e-5
1.079,   3.146e-5
1.080,   3.085e-5
1.081,   3.030e-5
1.082,   2.986e-5
1.083,   2.930e-5
1.084,   2.888e-5
1.085,   2.853e-5
1.086,   2.800e-5
1.087,   2.781e-5
1.088,   2.755e-5
1.089,   2.715e-5
1.090,   2.694e-5
1.091,   2.660e-5
1.092,   2.642e-5
1.093,   2.625e-5
1.094,   2.595e-5
1.095,   2.584e-5
1.096,   2.565e-5
1.097,   2.543e-5
1.098,   2.539e-5
1.099,   2.516e-5
1.100,   2.509e-5
1.101,   2.504e-5
1.102,   2.480e-5
1.103,   2.475e-5
1.104,   2.468e-5
1.105,   2.456e-5
1.106,   2.456e-5
1.107,   2.445e-5
1.108,   2.437e-5
1.109,   2.441e-5
1.110,   2.424e-5
1.111,   2.428e-5
1.112,   2.420e-5
1.113,   2.421e-5
1.114,   2.426e-5
1.115,   2.415e-5
1.116,   2.410e-5
1.117,   2.421e-5
1.118,   2.403e-5
1.119,   2.414e-5
1.120,   2.418e-5
1.121,   2.411e-5
1.122,   2.421e-5
1.123,   2.412e-5
1.124,   2.415e-5
1.125,   2.424e-5
1.126,   2.431e-5
1.127,   2.428e-5
1.128,   2.428e-5
1.129,   2.431e-5
1.130,   2.444e-5
1.131,   2.432e-5
1.132,   2.442e-5
1.133,   2.457e-5
1.134,   2.446e-5
1.135,   2.459e-5
1.136,   2.464e-5
1.137,   2.462e-5
1.138,   2.478e-5
1.139,   2.483e-5
1.140,   2.484e-5
1.141,   2.496e-5
1.142,   2.490e-5
1.143,   2.505e-5
1.144,   2.505e-5
1.145,   2.514e-5
1.146,   2.524e-5
1.147,   2.521e-5
1.148,   2.529e-5
1.149,   2.544e-5
1.150,   2.536e-5
1.151,   2.559e-5
1.152,   2.565e-5
1.153,   2.557e-5
1.154,   2.576e-5
1.155,   2.574e-5
1.156,   2.582e-5
1.157,   2.592e-5
1.158,   2.596e-5
1.159,   2.612e-5
1.160,   2.614e-5
1.161,   2.614e-5
1.162,   2.634e-5
1.163,   2.625e-5
1.164,   2.640e-5
1.165,   2.657e-5
1.166,   2.648e-5
1.167,   2.665e-5
1.168,   2.669e-5
1.169,   2.669e-5
1.170,   2.685e-5
1.171,   2.682e-5
1.172,   2.692e-5
1.173,   2.704e-5
1.174,   2.695e-5
1.175,   2.710e-5
1.176,   2.713e-5
1.177,   2.720e-5
1.178,   2.734e-5
1.179,   2.724e-5
1.180,   2.734e-5
1.181,   2.744e-5
1.182,   2.738e-5
1.183,   2.757e-5
1.184,   2.757e-5
1.185,   2.749e-5
1.186,   2.770e-5
1.187,   2.768e-5
1.188,   2.770e-5
1.189,   2.786e-5
1.190,   2.777e-5
1.191,   2.789e-5
1.192,   2.795e-5
1.193,   2.794e-5
1.194,   2.807e-5
1.195,   2.791e-5
1.196,   2.808e-5
1.197,   2.816e-5
1.198,   2.802e-5
1.199,   2.820e-5
1.200,   2.819e-5
1.201,   2.818e-5
1.202,   2.827e-5
1.203,   2.833e-5
1.204,   2.831e-5
1.205,   2.842e-5
1.206,   2.827e-5
1.207,   2.837e-5
1.208,   2.838e-5
1.209,   2.842e-5
1.210,   2.856e-5
1.211,   2.836e-5
1.212,   2.846e-5
1.213,   2.858e-5
1.214,   2.837e-5
1.215,   2.855e-5
1.216,   2.859e-5
1.217,   2.844e-5
1.218,   2.860e-5
1.219,   2.853e-5
1.220,   2.855e-5
1.221,   2.864e-5
1.222,   2.856e-5
1.223,   2.861e-5
1.224,   2.863e-5
1.225,   2.853e-5
1.226,   2.871e-5
1.227,   2.857e-5
1.228,   2.868e-5
1.229,   2.877e-5
1.230,   2.856e-5
1.231,   2.869e-5
1.232,   2.871e-5
1.233,   2.863e-5
1.234,   2.883e-5
1.235,   2.868e-5
1.236,   2.859e-5
1.237,   2.876e-5
1.238,   2.866e-5
1.239,   2.871e-5
1.240,   2.874e-5
1.241,   2.874e-5
1.242,   2.885e-5
1.243,   2.866e-5
1.244,   2.871e-5
1.245,   2.883e-5
1.246,   2.865e-5
1.247,   2.877e-5
1.248,   2.880e-5
1.249,   2.871e-5
1.250,   2.882e-5
1.251,   2.875e-5
1.252,   2.873e-5
1.253,   2.886e-5
1.254,   2.890e-5
1.255,   2.888e-5
1.256,   2.886e-5
1.257,   2.878e-5
1.258,   2.897e-5
1.259,   2.884e-5
1.260,   2.895e-5
1.261,   2.904e-5
1.262,   2.884e-5
1.263,   2.901e-5
1.264,   2.905e-5
1.265,   2.890e-5
1.266,   2.912e-5
1.267,   2.908e-5
1.268,   2.905e-5
1.269,   2.923e-5
1.270,   2.910e-5
1.271,   2.921e-5
1.272,   2.921e-5
1.273,   2.924e-5
1.274,   2.939e-5
1.275,   2.924e-5
1.276,   2.934e-5
1.277,   2.950e-5
1.278,   2.936e-5
1.279,   2.954e-5
1.280,   2.969e-5
1.281,   2.952e-5
1.282,   2.976e-5
1.283,   2.972e-5
1.284,   2.977e-5
1.285,   2.988e-5
1.286,   2.990e-5
1.287,   2.994e-5
1.288,   3.003e-5
1.289,   3.008e-5
1.290,   3.029e-5
1.291,   3.022e-5
1.292,   3.053e-5
1.293,   3.063e-5
1.294,   3.047e-5
1.295,   3.071e-5
1.296,   3.078e-5
1.297,   3.078e-5
1.298,   3.106e-5
1.299,   3.101e-5
1.300,   3.113e-5
1.301,   3.130e-5
1.302,   3.131e-5
1.303,   3.156e-5
1.304,   3.165e-5
1.305,   3.186e-5
1.306,   3.204e-5
1.307,   3.202e-5
1.308,   3.224e-5
1.309,   3.248e-5
1.310,   3.245e-5
1.311,   3.279e-5
1.312,   3.297e-5
1.313,   3.301e-5
1.314,   3.342e-5
1.315,   3.345e-5
1.316,   3.370e-5
1.317,   3.400e-5
1.318,   3.420e-5
1.319,   3.447e-5
1.320,   3.465e-5
1.321,   3.488e-5
1.322,   3.533e-5
1.323,   3.543e-5
1.324,   3.571e-5
1.325,   3.613e-5
1.326,   3.632e-5
1.327,   3.675e-5
1.328,   3.707e-5
1.329,   3.729e-5
1.330,   3.776e-5
1.331,   3.805e-5
1.332,   3.834e-5
1.333,   3.892e-5
1.334,   3.919e-5
1.335,   3.971e-5
1.336,   4.022e-5
1.337,   4.063e-5
1.338,   4.129e-5
1.339,   4.160e-5
1.340,   4.227e-5
1.341,   4.304e-5
1.342,   4.336e-5
1.343,   4.418e-5
1.344,   4.483e-5
1.345,   4.539e-5
1.346,   4.632e-5
1.347,   4.681e-5
1.348,   4.776e-5
1.349,   4.873e-5
1.350,   4.940e-5
1.351,   5.033e-5
1.352,   5.132e-5
1.353,   5.214e-5
1.354,   5.337e-5
1.355,   5.428e-5
1.356,   5.561e-5
1.357,   5.684e-5
1.358,   5.774e-5
1.359,   5.922e-5
1.360,   6.064e-5
1.361,   6.192e-5
1.362,   6.362e-5
1.363,   6.505e-5
1.364,   6.665e-5
1.365,   6.852e-5
1.366,   7.018e-5
1.367,   7.207e-5
1.368,   7.401e-5
1.369,   7.625e-5
1.370,   7.855e-5
1.371,   8.056e-5
1.372,   8.303e-5
1.373,   8.569e-5
1.374,   8.803e-5
1.375,   9.091e-5
1.376,   9.387e-5
1.377,   9.674e-5
1.378,   9.999e-5
1.379,   1.031e-4
1.380,   1.067e-4
1.381,   1.104e-4
1.382,   1.142e-4
1.383,   1.183e-4
1.384,   1.224e-4
1.385,   1.266e-4
1.386,   1.315e-4
1.387,   1.361e-4
1.388,   1.414e-4
1.389,   1.468e-4
1.390,   1.520e-4
1.391,   1.582e-4
1.392,   1.643e-4
1.393,   1.706e-4
1.394,   1.776e-4
1.395,   1.845e-4
1.396,   1.920e-4
1.397,   2.000e-4
1.398,   2.076e-4
1.399,   2.164e-4
1.400,   2.254e-4
1.401,   2.350e-4
1.402,   2.450e-4
1.403,   2.550e-4
1.404,   2.659e-4
1.405,   2.777e-4
1.406,   2.892e-4
1.407,   3.019e-4
1.408,   3.153e-4
1.409,   3.288e-4
1.410,   3.436e-4
1.411,   3.582e-4
1.412,   3.740e-4
1.413,   3.907e-4
1.414,   4.078e-4
1.415,   4.260e-4
1.416,   4.451e-4
1.417,   4.648e-4
1.418,   4.858e-4
1.419,   5.070e-4
1.420,   5.299e-4
1.421,   5.536e-4
1.422,   5.780e-4
1.423,   6.042e-4
1.424,   6.312e-4
1.425,   6.590e-4
1.426,   6.885e-4
1.427,   7.189e-4
1.428,   7.506e-4
1.429,   7.852e-4
1.430,   8.190e-4
1.431,   8.549e-4
1.432,   8.924e-4
1.433,   9.318e-4
1.434,   9.733e-4
1.435,   1.015e-3
1.436,   1.060e-3
1.437,   1.106e-3
1.438,   1.153e-3
1.439,   1.204e-3
1.440,   1.256e-3
1.441,   1.309e-3
1.442,   1.366e-3
1.443,   1.426e-3
1.444,   1.486e-3
1.445,   1.548e-3
1.446,   1.612e-3
1.447,   1.679e-3
1.448,   1.748e-3
1.449,   1.822e-3
1.450,   1.896e-3
1.451,   1.975e-3
1.452,   2.057e-3
1.453,   2.141e-3
1.454,   2.230e-3
1.455,   2.318e-3
1.456,   2.407e-3
1.457,   2.498e-3
1.458,   2.592e-3
1.459,   2.694e-3
1.460,   2.800e-3
1.461,   2.916e-3
1.462,   3.033e-3
1.463,   3.142e-3
1.464,   3.249e-3
1.465,   3.367e-3
1.466,   3.497e-3