File: Experimental Records, Raw Data, and Supplementary Notes and Figures/batch4/final400/B4_BEST_400_#1_High_Quality(#17)-228mV.txt
Mar. 27, 2023   14:28:26
Linear Sweep Voltammetry
File: d:\current work\al_oer\electrochemical test data\batch 4\400\B4_BEST_400_#1_High_Quality(#17)-228mV.txt
Data Source:  Experiment
Instrument Model:  CHI660E
Header:
Note:

Init E (V) = 1.087

Final E (V) = 1.586

Scan Rate (V/s) = 0.010
Sample Interval (V) = 0.001
Quiet Time (sec) = 2
Sensitivity (A/V) = 0.001
Comp R (ohm) = 6.7

Results:

Channel 1:
Ep = 1.317V
ip = 1.005e-2A
Ah = 5.517e-2C

Potential/V, Current/A
1.087,   -2.755e-6
1.088,   6.369e-8
1.089,   6.393e-7
1.090,   1.000e-6
1.091,   1.364e-6
1.092,   1.685e-6
1.093,   1.940e-6
1.094,   2.199e-6
1.095,   2.429e-6
1.096,   2.606e-6
1.097,   2.812e-6
1.098,   2.957e-6
1.099,   3.155e-6
1.100,   3.303e-6
1.101,   3.439e-6
1.102,   3.570e-6
1.103,   3.664e-6
1.104,   3.808e-6
1.105,   3.932e-6
1.106,   3.994e-6
1.107,   4.134e-6
1.108,   4.261e-6
1.109,   4.279e-6
1.110,   4.418e-6
1.111,   4.490e-6
1.112,   4.570e-6
1.113,   4.625e-6
1.114,   4.673e-6
1.115,   4.742e-6
1.116,   4.816e-6
1.117,   4.875e-6
1.118,   4.947e-6
1.119,   4.960e-6
1.120,   5.073e-6
1.121,   5.126e-6
1.122,   5.132e-6
1.123,   5.194e-6
1.124,   5.261e-6
1.125,   5.265e-6
1.126,   5.345e-6
1.127,   5.379e-6
1.128,   5.438e-6
1.129,   5.521e-6
1.130,   5.506e-6
1.131,   5.524e-6
1.132,   5.620e-6
1.133,   5.638e-6
1.134,   5.710e-6
1.135,   5.714e-6
1.136,   5.752e-6
1.137,   5.789e-6
1.138,   5.831e-6
1.139,   5.882e-6
1.140,   5.892e-6
1.141,   5.910e-6
1.142,   5.983e-6
1.143,   5.983e-6
1.144,   6.005e-6
1.145,   6.102e-6
1.146,   6.115e-6
1.147,   6.161e-6
1.148,   6.185e-6
1.149,   6.185e-6
1.150,   6.213e-6
1.151,   6.215e-6
1.152,   6.305e-6
1.153,   6.314e-6
1.154,   6.304e-6
1.155,   6.390e-6
1.156,   6.403e-6
1.157,   6.422e-6
1.158,   6.462e-6
1.159,   6.505e-6
1.160,   6.513e-6
1.161,   6.573e-6
1.162,   6.574e-6
1.163,   6.616e-6
1.164,   6.636e-6
1.165,   6.640e-6
1.166,   6.714e-6
1.167,   6.708e-6
1.168,   6.737e-6
1.169,   6.771e-6
1.170,   6.794e-6
1.171,   6.820e-6
1.172,   6.850e-6
1.173,   6.870e-6
1.174,   6.926e-6
1.175,   6.932e-6
1.176,   6.968e-6
1.177,   6.986e-6
1.178,   6.969e-6
1.179,   7.061e-6
1.180,   7.061e-6
1.181,   7.054e-6
1.182,   7.137e-6
1.183,   7.133e-6
1.184,   7.174e-6
1.185,   7.186e-6
1.186,   7.200e-6
1.187,   7.251e-6
1.188,   7.247e-6
1.189,   7.279e-6
1.190,   7.341e-6
1.191,   7.341e-6
1.192,   7.355e-6
1.193,   7.389e-6
1.194,   7.411e-6
1.195,   7.422e-6
1.196,   7.422e-6
1.197,   7.475e-6
1.198,   7.495e-6
1.199,   7.487e-6
1.200,   7.539e-6
1.201,   7.573e-6
1.202,   7.530e-6
1.203,   7.610e-6
1.204,   7.645e-6
1.205,   7.618e-6
1.206,   7.673e-6
1.207,   7.665e-6
1.208,   7.712e-6
1.209,   7.702e-6
1.210,   7.692e-6
1.211,   7.729e-6
1.212,   7.770e-6
1.213,   7.752e-6
1.214,   7.817e-6
1.215,   7.801e-6
1.216,   7.819e-6
1.217,   7.849e-6
1.218,   7.841e-6
1.219,   7.884e-6
1.220,   7.909e-6
1.221,   7.891e-6
1.222,   7.969e-6
1.223,   7.981e-6
1.224,   7.941e-6
1.225,   7.987e-6
1.226,   7.980e-6
1.227,   8.010e-6
1.228,   8.029e-6
1.229,   8.009e-6
1.230,   8.054e-6
1.231,   8.051e-6
1.232,   8.059e-6
1.233,   8.132e-6
1.234,   8.073e-6
1.235,   8.128e-6
1.236,   8.139e-6
1.237,   8.154e-6
1.238,   8.176e-6
1.239,   8.160e-6
1.240,   8.187e-6
1.241,   8.235e-6
1.242,   8.212e-6
1.243,   8.244e-6
1.244,   8.228e-6
1.245,   8.257e-6
1.246,   8.268e-6
1.247,   8.256e-6
1.248,   8.320e-6
1.249,   8.365e-6
1.250,   8.309e-6
1.251,   8.355e-6
1.252,   8.340e-6
1.253,   8.342e-6
1.254,   8.412e-6
1.255,   8.386e-6
1.256,   8.407e-6
1.257,   8.438e-6
1.258,   8.446e-6
1.259,   8.455e-6
1.260,   8.478e-6
1.261,   8.497e-6
1.262,   8.537e-6
1.263,   8.515e-6
1.264,   8.541e-6
1.265,   8.578e-6
1.266,   8.566e-6
1.267,   8.599e-6
1.268,   8.595e-6
1.269,   8.591e-6
1.270,   8.622e-6
1.271,   8.639e-6
1.272,   8.686e-6
1.273,   8.688e-6
1.274,   8.699e-6
1.275,   8.733e-6
1.276,   8.739e-6
1.277,   8.751e-6
1.278,   8.810e-6
1.279,   8.790e-6
1.280,   8.838e-6
1.281,   8.905e-6
1.282,   8.882e-6
1.283,   8.953e-6
1.284,   8.930e-6
1.285,   8.940e-6
1.286,   9.007e-6
1.287,   9.012e-6
1.288,   9.024e-6
1.289,   9.062e-6
1.290,   9.089e-6
1.291,   9.089e-6
1.292,   9.152e-6
1.293,   9.176e-6
1.294,   9.235e-6
1.295,   9.236e-6
1.296,   9.268e-6
1.297,   9.318e-6
1.298,   9.319e-6
1.299,   9.395e-6
1.300,   9.448e-6
1.301,   9.447e-6
1.302,   9.505e-6
1.303,   9.539e-6
1.304,   9.555e-6
1.305,   9.648e-6
1.306,   9.668e-6
1.307,   9.700e-6
1.308,   9.752e-6
1.309,   9.793e-6
1.310,   9.886e-6
1.311,   9.918e-6
1.312,   9.986e-6
1.313,   1.007e-5
1.314,   1.008e-5
1.315,   1.015e-5
1.316,   1.022e-5
1.317,   1.026e-5
1.318,   1.034e-5
1.319,   1.037e-5
1.320,   1.042e-5
1.321,   1.052e-5
1.322,   1.058e-5
1.323,   1.067e-5
1.324,   1.077e-5
1.325,   1.084e-5
1.326,   1.093e-5
1.327,   1.100e-5
1.328,   1.108e-5
1.329,   1.120e-5
1.330,   1.127e-5
1.331,   1.143e-5
1.332,   1.160e-5
1.333,   1.158e-5
1.334,   1.179e-5
1.335,   1.184e-5
1.336,   1.197e-5
1.337,   1.216e-5
1.338,   1.226e-5
1.339,   1.245e-5
1.340,   1.256e-5
1.341,   1.266e-5
1.342,   1.288e-5
1.343,   1.306e-5
1.344,   1.324e-5
1.345,   1.343e-5
1.346,   1.355e-5
1.347,   1.380e-5
1.348,   1.404e-5
1.349,   1.422e-5
1.350,   1.452e-5
1.351,   1.477e-5
1.352,   1.500e-5
1.353,   1.535e-5
1.354,   1.557e-5
1.355,   1.596e-5
1.356,   1.630e-5
1.357,   1.662e-5
1.358,   1.704e-5
1.359,   1.742e-5
1.360,   1.787e-5
1.361,   1.832e-5
1.362,   1.876e-5
1.363,   1.935e-5
1.364,   1.993e-5
1.365,   2.046e-5
1.366,   2.112e-5
1.367,   2.177e-5
1.368,   2.250e-5
1.369,   2.325e-5
1.370,   2.401e-5
1.371,   2.490e-5
1.372,   2.582e-5
1.373,   2.682e-5
1.374,   2.787e-5
1.375,   2.890e-5
1.376,   3.015e-5
1.377,   3.148e-5
1.378,   3.276e-5
1.379,   3.428e-5
1.380,   3.583e-5
1.381,   3.741e-5
1.382,   3.914e-5
1.383,   4.096e-5
1.384,   4.301e-5
1.385,   4.518e-5
1.386,   4.742e-5
1.387,   4.991e-5
1.388,   5.253e-5
1.389,   5.531e-5
1.390,   5.827e-5
1.391,   6.142e-5
1.392,   6.485e-5
1.393,   6.853e-5
1.394,   7.225e-5
1.395,   7.646e-5
1.396,   8.087e-5
1.397,   8.542e-5
1.398,   9.039e-5
1.399,   9.553e-5
1.400,   1.011e-4
1.401,   1.070e-4
1.402,   1.133e-4
1.403,   1.200e-4
1.404,   1.270e-4
1.405,   1.344e-4
1.406,   1.423e-4
1.407,   1.506e-4
1.408,   1.596e-4
1.409,   1.689e-4
1.410,   1.787e-4
1.411,   1.892e-4
1.412,   2.000e-4
1.413,   2.115e-4
1.414,   2.238e-4
1.415,   2.367e-4
1.416,   2.503e-4
1.417,   2.646e-4
1.418,   2.793e-4
1.419,   2.951e-4
1.420,   3.118e-4
1.421,   3.293e-4
1.422,   3.474e-4
1.423,   3.662e-4
1.424,   3.862e-4
1.425,   4.071e-4
1.426,   4.288e-4
1.427,   4.519e-4
1.428,   4.758e-4
1.429,   5.010e-4
1.430,   5.271e-4
1.431,   5.544e-4
1.432,   5.835e-4
1.433,   6.134e-4
1.434,   6.445e-4
1.435,   6.769e-4
1.436,   7.108e-4
1.437,   7.461e-4
1.438,   7.878e-4
1.439,   8.266e-4
1.440,   8.679e-4
1.441,   9.101e-4
1.442,   9.532e-4
1.443,   9.975e-4
1.444,   1.045e-3
1.445,   1.094e-3
1.446,   1.144e-3
1.447,   1.197e-3
1.448,   1.253e-3
1.449,   1.311e-3
1.450,   1.370e-3
1.451,   1.428e-3
1.452,   1.491e-3
1.453,   1.558e-3
1.454,   1.623e-3
1.455,   1.690e-3
1.456,   1.760e-3
1.457,   1.831e-3
1.458,   1.905e-3
1.459,   1.985e-3
1.460,   2.067e-3
1.461,   2.148e-3
1.462,   2.235e-3
1.463,   2.318e-3
1.464,   2.396e-3
1.465,   2.494e-3
1.466,   2.600e-3
1.467,   2.780e-3
1.468,   2.906e-3
1.469,   3.007e-3
1.470,   3.118e-3
1.471,   3.235e-3
1.472,   3.341e-3
1.473,   3.443e-3
1.474,   3.551e-3
1.475,   3.708e-3
1.476,   3.820e-3
1.477,   3.944e-3
1.478,   4.158e-3
1.479,   4.390e-3
1.480,   4.648e-3
1.481,   4.848e-3
1.482,   4.974e-3
1.483,   5.150e-3
1.484,   5.375e-3
1.485,   5.510e-3
1.486,   5.704e-3
1.487,   5.952e-3
1.488,   6.129e-3
1.489,   6.349e-3
1.490,   6.566e-3
1.491,   6.923e-3
1.492,   7.111e-3
1.493,   7.281e-3
1.494,   7.497e-3
1.495,   7.821e-3
1.496,   8.400e-3
1.497,   8.554e-3
1.498,   8.782e-3
1.499,   9.410e-3
1.500,   9.601e-3
1.501,   9.689e-3
1.502,   9.971e-3
1.503,   1.006e-2
1.504,   1.006e-2
1.505,   1.006e-2
1.506,   1.006e-2
1.507,   1.006e-2
1.508,   1.006e-2
1.509,   1.006e-2
1.510,   1.006e-2
1.511,   1.006e-2
1.512,   1.006e-2
1.513,   1.006e-2
1.514,   1.006e-2
1.515,   1.006e-2
1.516,   1.006e-2
1.517,   1.006e-2
1.518,   1.006e-2
1.519,   1.006e-2
1.520,   1.006e-2
1.521,   1.006e-2
1.522,   1.006e-2
1.523,   1.006e-2
1.524,   1.006e-2
1.525,   1.006e-2
1.526,   1.006e-2
1.527,   1.006e-2
1.528,   1.006e-2
1.529,   1.006e-2
1.530,   1.006e-2
1.531,   1.006e-2
1.532,   1.006e-2
1.533,   1.006e-2
1.534,   1.006e-2
1.535,   1.006e-2
1.536,   1.006e-2
1.537,   1.006e-2
1.538,   1.006e-2
1.539,   1.006e-2
1.540,   1.006e-2
1.541,   1.006e-2
1.542,   1.006e-2
1.543,   1.006e-2
1.544,   1.006e-2
1.545,   1.006e-2
1.546,   1.006e-2
1.547,   1.006e-2
1.548,   1.006e-2
1.549,   1.006e-2
1.550,   1.006e-2
1.551,   1.006e-2
1.552,   1.006e-2
1.553,   1.006e-2
1.554,   1.006e-2
1.555,   1.006e-2
1.556,   1.006e-2
1.557,   1.006e-2
1.558,   1.006e-2
1.559,   1.006e-2
1.560,   1.006e-2
1.561,   1.006e-2
1.562,   1.006e-2
1.563,   1.006e-2
1.564,   1.006e-2
1.565,   1.006e-2
1.566,   1.006e-2
1.567,   1.006e-2
1.568,   1.006e-2
1.569,   1.006e-2
1.570,   1.006e-2
1.571,   1.006e-2
1.572,   1.006e-2
1.573,   1.006e-2
1.574,   1.006e-2
1.575,   1.006e-2
1.576,   1.006e-2
1.577,   1.006e-2
1.578,   1.006e-2
1.579,   1.006e-2
1.580,   1.006e-2
1.581,   1.006e-2
1.582,   1.006e-2
1.583,   1.006e-2
1.584,   1.006e-2
1.585,   1.006e-2
1.586,   1.006e-2