File: Experimental Records, Raw Data, and Supplementary Notes and Figures/batch4/final400/B4_BEST_400_#1_Full-205mV.txt
Mar. 28, 2023   16:08:48
Linear Sweep Voltammetry
File: d:\current work\al_oer\electrochemical test data\batch 4\400\B4_BEST_400_#1_Full-205mV.txt
Data Source:  Experiment
Instrument Model:  CHI660E
Header:
Note:

Init E (V) = 1.084

Final E (V) = 1.483

Scan Rate (V/s) = 0.010
Sample Interval (V) = 0.001
Quiet Time (sec) = 2
Sensitivity (A/V) = 0.001
Comp R (ohm) = 4.8

Results:

Channel 1:

Potential/V, Current/A
1.084,   8.655e-5
1.085,   9.250e-5
1.086,   8.855e-5
1.087,   8.452e-5
1.088,   8.121e-5
1.089,   7.821e-5
1.090,   7.544e-5
1.091,   7.312e-5
1.092,   7.123e-5
1.093,   6.906e-5
1.094,   6.736e-5
1.095,   6.586e-5
1.096,   6.434e-5
1.097,   6.297e-5
1.098,   6.182e-5
1.099,   6.077e-5
1.100,   5.955e-5
1.101,   5.864e-5
1.102,   5.782e-5
1.103,   5.691e-5
1.104,   5.635e-5
1.105,   5.575e-5
1.106,   5.494e-5
1.107,   5.443e-5
1.108,   5.361e-5
1.109,   5.317e-5
1.110,   5.260e-5
1.111,   5.208e-5
1.112,   5.175e-5
1.113,   5.126e-5
1.114,   5.084e-5
1.115,   5.057e-5
1.116,   5.008e-5
1.117,   4.986e-5
1.118,   4.964e-5
1.119,   4.913e-5
1.120,   4.899e-5
1.121,   4.880e-5
1.122,   4.843e-5
1.123,   4.828e-5
1.124,   4.798e-5
1.125,   4.778e-5
1.126,   4.757e-5
1.127,   4.743e-5
1.128,   4.730e-5
1.129,   4.717e-5
1.130,   4.703e-5
1.131,   4.700e-5
1.132,   4.676e-5
1.133,   4.673e-5
1.134,   4.671e-5
1.135,   4.642e-5
1.136,   4.639e-5
1.137,   4.628e-5
1.138,   4.585e-5
1.139,   4.591e-5
1.140,   4.568e-5
1.141,   4.557e-5
1.142,   4.556e-5
1.143,   4.550e-5
1.144,   4.550e-5
1.145,   4.540e-5
1.146,   4.530e-5
1.147,   4.539e-5
1.148,   4.512e-5
1.149,   4.510e-5
1.150,   4.506e-5
1.151,   4.481e-5
1.152,   4.502e-5
1.153,   4.488e-5
1.154,   4.474e-5
1.155,   4.493e-5
1.156,   4.483e-5
1.157,   4.473e-5
1.158,   4.490e-5
1.159,   4.463e-5
1.160,   4.474e-5
1.161,   4.476e-5
1.162,   4.474e-5
1.163,   4.475e-5
1.164,   4.460e-5
1.165,   4.462e-5
1.166,   4.473e-5
1.167,   4.445e-5
1.168,   4.467e-5
1.169,   4.470e-5
1.170,   4.455e-5
1.171,   4.514e-5
1.172,   4.496e-5
1.173,   4.487e-5
1.174,   4.497e-5
1.175,   4.488e-5
1.176,   4.485e-5
1.177,   4.478e-5
1.178,   4.466e-5
1.179,   4.481e-5
1.180,   4.466e-5
1.181,   4.476e-5
1.182,   4.482e-5
1.183,   4.453e-5
1.184,   4.467e-5
1.185,   4.466e-5
1.186,   4.449e-5
1.187,   4.469e-5
1.188,   4.442e-5
1.189,   4.445e-5
1.190,   4.458e-5
1.191,   4.432e-5
1.192,   4.442e-5
1.193,   4.435e-5
1.194,   4.445e-5
1.195,   4.445e-5
1.196,   4.413e-5
1.197,   4.423e-5
1.198,   4.423e-5
1.199,   4.403e-5
1.200,   4.420e-5
1.201,   4.410e-5
1.202,   4.388e-5
1.203,   4.408e-5
1.204,   4.394e-5
1.205,   4.385e-5
1.206,   4.392e-5
1.207,   4.375e-5
1.208,   4.381e-5
1.209,   4.379e-5
1.210,   4.363e-5
1.211,   4.373e-5
1.212,   4.346e-5
1.213,   4.357e-5
1.214,   4.362e-5
1.215,   4.330e-5
1.216,   4.343e-5
1.217,   4.337e-5
1.218,   4.323e-5
1.219,   4.335e-5
1.220,   4.332e-5
1.221,   4.317e-5
1.222,   4.324e-5
1.223,   4.294e-5
1.224,   4.303e-5
1.225,   4.299e-5
1.226,   4.292e-5
1.227,   4.311e-5
1.228,   4.278e-5
1.229,   4.284e-5
1.230,   4.287e-5
1.231,   4.258e-5
1.232,   4.282e-5
1.233,   4.266e-5
1.234,   4.251e-5
1.235,   4.272e-5
1.236,   4.259e-5
1.237,   4.256e-5
1.238,   4.262e-5
1.239,   4.239e-5
1.240,   4.239e-5
1.241,   4.232e-5
1.242,   4.222e-5
1.243,   4.240e-5
1.244,   4.207e-5
1.245,   4.226e-5
1.246,   4.228e-5
1.247,   4.205e-5
1.248,   4.263e-5
1.249,   4.261e-5
1.250,   4.234e-5
1.251,   4.260e-5
1.252,   4.253e-5
1.253,   4.249e-5
1.254,   4.248e-5
1.255,   4.219e-5
1.256,   4.236e-5
1.257,   4.234e-5
1.258,   4.231e-5
1.259,   4.231e-5
1.260,   4.200e-5
1.261,   4.199e-5
1.262,   4.201e-5
1.263,   4.182e-5
1.264,   4.206e-5
1.265,   4.196e-5
1.266,   4.183e-5
1.267,   4.194e-5
1.268,   4.168e-5
1.269,   4.182e-5
1.270,   4.181e-5
1.271,   4.176e-5
1.272,   4.177e-5
1.273,   4.167e-5
1.274,   4.161e-5
1.275,   4.175e-5
1.276,   4.153e-5
1.277,   4.166e-5
1.278,   4.172e-5
1.279,   4.145e-5
1.280,   4.157e-5
1.281,   4.165e-5
1.282,   4.152e-5
1.283,   4.167e-5
1.284,   4.164e-5
1.285,   4.159e-5
1.286,   4.173e-5
1.287,   4.151e-5
1.288,   4.172e-5
1.289,   4.167e-5
1.290,   4.170e-5
1.291,   4.182e-5
1.292,   4.170e-5
1.293,   4.176e-5
1.294,   4.193e-5
1.295,   4.177e-5
1.296,   4.207e-5
1.297,   4.212e-5
1.298,   4.190e-5
1.299,   4.219e-5
1.300,   4.207e-5
1.301,   4.217e-5
1.302,   4.235e-5
1.303,   4.235e-5
1.304,   4.252e-5
1.305,   4.259e-5
1.306,   4.261e-5
1.307,   4.285e-5
1.308,   4.283e-5
1.309,   4.315e-5
1.310,   4.338e-5
1.311,   4.315e-5
1.312,   4.338e-5
1.313,   4.360e-5
1.314,   4.363e-5
1.315,   4.388e-5
1.316,   4.395e-5
1.317,   4.414e-5
1.318,   4.447e-5
1.319,   4.435e-5
1.320,   4.472e-5
1.321,   4.491e-5
1.322,   4.518e-5
1.323,   4.547e-5
1.324,   4.553e-5
1.325,   4.584e-5
1.326,   4.619e-5
1.327,   4.622e-5
1.328,   4.671e-5
1.329,   4.707e-5
1.330,   4.724e-5
1.331,   4.777e-5
1.332,   4.791e-5
1.333,   4.828e-5
1.334,   4.877e-5
1.335,   4.916e-5
1.336,   4.955e-5
1.337,   5.001e-5
1.338,   5.038e-5
1.339,   5.121e-5
1.340,   5.149e-5
1.341,   5.207e-5
1.342,   5.279e-5
1.343,   5.306e-5
1.344,   5.397e-5
1.345,   5.468e-5
1.346,   5.532e-5
1.347,   5.622e-5
1.348,   5.708e-5
1.349,   5.783e-5
1.350,   5.889e-5
1.351,   5.953e-5
1.352,   6.078e-5
1.353,   6.186e-5
1.354,   6.309e-5
1.355,   6.443e-5
1.356,   6.537e-5
1.357,   6.687e-5
1.358,   6.847e-5
1.359,   6.977e-5
1.360,   7.168e-5
1.361,   7.351e-5
1.362,   7.505e-5
1.363,   7.738e-5
1.364,   7.921e-5
1.365,   8.140e-5
1.366,   8.395e-5
1.367,   8.623e-5
1.368,   8.897e-5
1.369,   9.162e-5
1.370,   9.449e-5
1.371,   9.795e-5
1.372,   1.010e-4
1.373,   1.047e-4
1.374,   1.083e-4
1.375,   1.119e-4
1.376,   1.164e-4
1.377,   1.207e-4
1.378,   1.252e-4
1.379,   1.304e-4
1.380,   1.356e-4
1.381,   1.411e-4
1.382,   1.472e-4
1.383,   1.539e-4
1.384,   1.619e-4
1.385,   1.680e-4
1.386,   1.752e-4
1.387,   1.834e-4
1.388,   1.913e-4
1.389,   2.002e-4
1.390,   2.099e-4
1.391,   2.194e-4
1.392,   2.302e-4
1.393,   2.414e-4
1.394,   2.528e-4
1.395,   2.653e-4
1.396,   2.782e-4
1.397,   2.919e-4
1.398,   3.067e-4
1.399,   3.222e-4
1.400,   3.384e-4
1.401,   3.551e-4
1.402,   3.729e-4
1.403,   3.922e-4
1.404,   4.116e-4
1.405,   4.274e-4
1.406,   4.564e-4
1.407,   4.783e-4
1.408,   5.024e-4
1.409,   5.282e-4
1.410,   5.550e-4
1.411,   5.836e-4
1.412,   6.130e-4
1.413,   6.397e-4
1.414,   6.770e-4
1.415,   7.105e-4
1.416,   7.465e-4
1.417,   7.838e-4
1.418,   8.214e-4
1.419,   8.642e-4
1.420,   9.062e-4
1.421,   9.523e-4
1.422,   9.918e-4
1.423,   1.049e-3
1.424,   1.101e-3
1.425,   1.155e-3
1.426,   1.212e-3
1.427,   1.271e-3
1.428,   1.334e-3
1.429,   1.389e-3
1.430,   1.465e-3
1.431,   1.537e-3
1.432,   1.608e-3
1.433,   1.683e-3
1.434,   1.762e-3
1.435,   1.846e-3
1.436,   1.924e-3
1.437,   2.017e-3
1.438,   2.116e-3
1.439,   2.212e-3
1.440,   2.321e-3
1.441,   2.420e-3
1.442,   2.526e-3
1.443,   2.640e-3
1.444,   2.766e-3
1.445,   2.885e-3
1.446,   2.998e-3
1.447,   3.142e-3
1.448,   3.268e-3
1.449,   3.397e-3
1.450,   3.535e-3
1.451,   3.648e-3
1.452,   3.798e-3
1.453,   3.952e-3
1.454,   4.095e-3
1.455,   4.230e-3
1.456,   4.434e-3
1.457,   4.590e-3
1.458,   4.756e-3
1.459,   4.913e-3
1.460,   5.060e-3
1.461,   5.226e-3
1.462,   5.399e-3
1.463,   5.592e-3
1.464,   5.786e-3
1.465,   5.974e-3
1.466,   6.163e-3
1.467,   6.336e-3
1.468,   6.499e-3
1.469,   6.656e-3
1.470,   6.797e-3
1.471,   6.966e-3
1.472,   7.161e-3
1.473,   7.410e-3
1.474,   7.628e-3
1.475,   7.808e-3
1.476,   8.019e-3
1.477,   8.311e-3
1.478,   8.664e-3
1.479,   8.880e-3
1.480,   9.397e-3
1.481,   9.831e-3
1.482,   1.006e-2
1.483,   1.006e-2