File: Experimental Records, Raw Data, and Supplementary Notes and Figures/batch4/final400/B4_BEST_400_#4_Full-227mV.txt
Mar. 28, 2023   16:29:28
Linear Sweep Voltammetry
File: d:\current work\al_oer\electrochemical test data\batch 4\400\B4_BEST_400_#4_Full-227mV.txt
Data Source:  Experiment
Instrument Model:  CHI660E
Header:
Note:

Init E (V) = 1.098

Final E (V) = 1.497

Scan Rate (V/s) = 0.010
Sample Interval (V) = 0.001
Quiet Time (sec) = 2
Sensitivity (A/V) = 0.001
Comp R (ohm) = 5.1

Results:

Channel 1:

Potential/V, Current/A
1.098,   6.300e-5
1.099,   7.020e-5
1.100,   6.775e-5
1.101,   6.502e-5
1.102,   6.269e-5
1.103,   6.053e-5
1.104,   5.864e-5
1.105,   5.711e-5
1.106,   5.562e-5
1.107,   5.412e-5
1.108,   5.304e-5
1.109,   5.171e-5
1.110,   5.078e-5
1.111,   4.987e-5
1.112,   4.898e-5
1.113,   4.828e-5
1.114,   4.746e-5
1.115,   4.681e-5
1.116,   4.629e-5
1.117,   4.554e-5
1.118,   4.530e-5
1.119,   4.487e-5
1.120,   4.420e-5
1.121,   4.392e-5
1.122,   4.341e-5
1.123,   4.306e-5
1.124,   4.289e-5
1.125,   4.249e-5
1.126,   4.232e-5
1.127,   4.202e-5
1.128,   4.171e-5
1.129,   4.163e-5
1.130,   4.123e-5
1.131,   4.119e-5
1.132,   4.111e-5
1.133,   4.073e-5
1.134,   4.069e-5
1.135,   4.055e-5
1.136,   4.038e-5
1.137,   4.033e-5
1.138,   4.019e-5
1.139,   4.007e-5
1.140,   4.012e-5
1.141,   3.992e-5
1.142,   3.994e-5
1.143,   3.986e-5
1.144,   4.006e-5
1.145,   3.987e-5
1.146,   3.964e-5
1.147,   3.965e-5
1.148,   3.973e-5
1.149,   3.954e-5
1.150,   3.964e-5
1.151,   3.961e-5
1.152,   3.953e-5
1.153,   3.963e-5
1.154,   3.953e-5
1.155,   3.954e-5
1.156,   3.959e-5
1.157,   3.957e-5
1.158,   3.961e-5
1.159,   3.960e-5
1.160,   3.956e-5
1.161,   3.974e-5
1.162,   3.949e-5
1.163,   3.969e-5
1.164,   3.982e-5
1.165,   3.963e-5
1.166,   3.977e-5
1.167,   3.978e-5
1.168,   3.971e-5
1.169,   3.988e-5
1.170,   3.992e-5
1.171,   3.984e-5
1.172,   4.003e-5
1.173,   3.995e-5
1.174,   4.000e-5
1.175,   4.001e-5
1.176,   4.010e-5
1.177,   4.025e-5
1.178,   4.011e-5
1.179,   4.026e-5
1.180,   4.036e-5
1.181,   4.025e-5
1.182,   4.044e-5
1.183,   4.051e-5
1.184,   4.046e-5
1.185,   4.068e-5
1.186,   4.053e-5
1.187,   4.050e-5
1.188,   4.079e-5
1.189,   4.069e-5
1.190,   4.080e-5
1.191,   4.090e-5
1.192,   4.082e-5
1.193,   4.099e-5
1.194,   4.087e-5
1.195,   4.102e-5
1.196,   4.121e-5
1.197,   4.102e-5
1.198,   4.120e-5
1.199,   4.127e-5
1.200,   4.113e-5
1.201,   4.136e-5
1.202,   4.130e-5
1.203,   4.133e-5
1.204,   4.143e-5
1.205,   4.141e-5
1.206,   4.157e-5
1.207,   4.153e-5
1.208,   4.160e-5
1.209,   4.170e-5
1.210,   4.152e-5
1.211,   4.156e-5
1.212,   4.176e-5
1.213,   4.157e-5
1.214,   4.179e-5
1.215,   4.179e-5
1.216,   4.171e-5
1.217,   4.187e-5
1.218,   4.176e-5
1.219,   4.175e-5
1.220,   4.192e-5
1.221,   4.176e-5
1.222,   4.194e-5
1.223,   4.193e-5
1.224,   4.191e-5
1.225,   4.198e-5
1.226,   4.187e-5
1.227,   4.200e-5
1.228,   4.203e-5
1.229,   4.188e-5
1.230,   4.201e-5
1.231,   4.198e-5
1.232,   4.184e-5
1.233,   4.206e-5
1.234,   4.203e-5
1.235,   4.192e-5
1.236,   4.201e-5
1.237,   4.185e-5
1.238,   4.201e-5
1.239,   4.195e-5
1.240,   4.194e-5
1.241,   4.204e-5
1.242,   4.185e-5
1.243,   4.194e-5
1.244,   4.206e-5
1.245,   4.183e-5
1.246,   4.197e-5
1.247,   4.194e-5
1.248,   4.181e-5
1.249,   4.197e-5
1.250,   4.181e-5
1.251,   4.176e-5
1.252,   4.192e-5
1.253,   4.182e-5
1.254,   4.187e-5
1.255,   4.178e-5
1.256,   4.169e-5
1.257,   4.189e-5
1.258,   4.165e-5
1.259,   4.181e-5
1.260,   4.187e-5
1.261,   4.164e-5
1.262,   4.168e-5
1.263,   4.179e-5
1.264,   4.157e-5
1.265,   4.182e-5
1.266,   4.167e-5
1.267,   4.158e-5
1.268,   4.169e-5
1.269,   4.148e-5
1.270,   4.161e-5
1.271,   4.152e-5
1.272,   4.160e-5
1.273,   4.174e-5
1.274,   4.153e-5
1.275,   4.157e-5
1.276,   4.163e-5
1.277,   4.144e-5
1.278,   4.160e-5
1.279,   4.161e-5
1.280,   4.147e-5
1.281,   4.166e-5
1.282,   4.153e-5
1.283,   4.154e-5
1.284,   4.160e-5
1.285,   4.159e-5
1.286,   4.158e-5
1.287,   4.159e-5
1.288,   4.149e-5
1.289,   4.168e-5
1.290,   4.149e-5
1.291,   4.166e-5
1.292,   4.176e-5
1.293,   4.146e-5
1.294,   4.170e-5
1.295,   4.180e-5
1.296,   4.160e-5
1.297,   4.183e-5
1.298,   4.180e-5
1.299,   4.174e-5
1.300,   4.194e-5
1.301,   4.180e-5
1.302,   4.195e-5
1.303,   4.195e-5
1.304,   4.199e-5
1.305,   4.222e-5
1.306,   4.202e-5
1.307,   4.210e-5
1.308,   4.233e-5
1.309,   4.215e-5
1.310,   4.242e-5
1.311,   4.252e-5
1.312,   4.240e-5
1.313,   4.259e-5
1.314,   4.265e-5
1.315,   4.267e-5
1.316,   4.285e-5
1.317,   4.286e-5
1.318,   4.303e-5
1.319,   4.303e-5
1.320,   4.304e-5
1.321,   4.331e-5
1.322,   4.332e-5
1.323,   4.377e-5
1.324,   4.387e-5
1.325,   4.360e-5
1.326,   4.396e-5
1.327,   4.399e-5
1.328,   4.411e-5
1.329,   4.444e-5
1.330,   4.450e-5
1.331,   4.457e-5
1.332,   4.489e-5
1.333,   4.483e-5
1.334,   4.513e-5
1.335,   4.535e-5
1.336,   4.567e-5
1.337,   4.598e-5
1.338,   4.587e-5
1.339,   4.618e-5
1.340,   4.661e-5
1.341,   4.658e-5
1.342,   4.702e-5
1.343,   4.731e-5
1.344,   4.744e-5
1.345,   4.786e-5
1.346,   4.804e-5
1.347,   4.844e-5
1.348,   4.888e-5
1.349,   4.913e-5
1.350,   4.951e-5
1.351,   4.983e-5
1.352,   5.014e-5
1.353,   5.076e-5
1.354,   5.098e-5
1.355,   5.161e-5
1.356,   5.214e-5
1.357,   5.240e-5
1.358,   5.312e-5
1.359,   5.367e-5
1.360,   5.407e-5
1.361,   5.500e-5
1.362,   5.555e-5
1.363,   5.616e-5
1.364,   5.684e-5
1.365,   5.739e-5
1.366,   5.824e-5
1.367,   5.907e-5
1.368,   5.985e-5
1.369,   6.101e-5
1.370,   6.176e-5
1.371,   6.276e-5
1.372,   6.399e-5
1.373,   6.478e-5
1.374,   6.635e-5
1.375,   6.757e-5
1.376,   6.865e-5
1.377,   7.027e-5
1.378,   7.150e-5
1.379,   7.311e-5
1.380,   7.491e-5
1.381,   7.653e-5
1.382,   7.843e-5
1.383,   8.030e-5
1.384,   8.232e-5
1.385,   8.468e-5
1.386,   8.665e-5
1.387,   8.943e-5
1.388,   9.203e-5
1.389,   9.432e-5
1.390,   9.727e-5
1.391,   1.003e-4
1.392,   1.034e-4
1.393,   1.070e-4
1.394,   1.105e-4
1.395,   1.141e-4
1.396,   1.184e-4
1.397,   1.223e-4
1.398,   1.271e-4
1.399,   1.316e-4
1.400,   1.368e-4
1.401,   1.422e-4
1.402,   1.475e-4
1.403,   1.535e-4
1.404,   1.600e-4
1.405,   1.664e-4
1.406,   1.736e-4
1.407,   1.809e-4
1.408,   1.886e-4
1.409,   1.970e-4
1.410,   2.054e-4
1.411,   2.146e-4
1.412,   2.246e-4
1.413,   2.349e-4
1.414,   2.457e-4
1.415,   2.571e-4
1.416,   2.691e-4
1.417,   2.821e-4
1.418,   2.950e-4
1.419,   3.095e-4
1.420,   3.246e-4
1.421,   3.398e-4
1.422,   3.566e-4
1.423,   3.740e-4
1.424,   3.923e-4
1.425,   4.117e-4
1.426,   4.320e-4
1.427,   4.536e-4
1.428,   4.763e-4
1.429,   4.998e-4
1.430,   5.247e-4
1.431,   5.510e-4
1.432,   5.786e-4
1.433,   6.078e-4
1.434,   6.378e-4
1.435,   6.702e-4
1.436,   7.036e-4
1.437,   7.385e-4
1.438,   7.758e-4
1.439,   8.146e-4
1.440,   8.547e-4
1.441,   8.974e-4
1.442,   9.416e-4
1.443,   9.881e-4
1.444,   1.037e-3
1.445,   1.088e-3
1.446,   1.141e-3
1.447,   1.196e-3
1.448,   1.257e-3
1.449,   1.317e-3
1.450,   1.379e-3
1.451,   1.446e-3
1.452,   1.514e-3
1.453,   1.585e-3
1.454,   1.660e-3
1.455,   1.737e-3
1.456,   1.820e-3
1.457,   1.902e-3
1.458,   1.990e-3
1.459,   2.080e-3
1.460,   2.173e-3
1.461,   2.271e-3
1.462,   2.372e-3
1.463,   2.472e-3
1.464,   2.578e-3
1.465,   2.683e-3
1.466,   2.793e-3
1.467,   2.904e-3
1.468,   3.017e-3
1.469,   3.128e-3
1.470,   3.269e-3
1.471,   3.589e-3
1.472,   3.720e-3
1.473,   3.833e-3
1.474,   3.964e-3
1.475,   4.104e-3
1.476,   4.245e-3
1.477,   4.379e-3
1.478,   4.556e-3
1.479,   4.742e-3
1.480,   4.887e-3
1.481,   5.037e-3
1.482,   5.199e-3
1.483,   5.378e-3
1.484,   5.556e-3
1.485,   5.909e-3
1.486,   6.091e-3
1.487,   6.236e-3
1.488,   6.438e-3
1.489,   6.596e-3
1.490,   6.783e-3
1.491,   6.961e-3
1.492,   7.117e-3
1.493,   7.319e-3
1.494,   7.508e-3
1.495,   7.725e-3
1.496,   7.923e-3
1.497,   8.116e-3