File: Experimental Records, Raw Data, and Supplementary Notes and Figures/batch4/final400/B4_BEST_400_#8_High_Quality(#24)-209mV.txt
Mar. 28, 2023   14:10:28
Linear Sweep Voltammetry
File: d:\current work\al_oer\electrochemical test data\batch 4\400\B4_BEST_400_#8_High_Quality(#24)-209mV.txt
Data Source:  Experiment
Instrument Model:  CHI660E
Header:
Note:

Init E (V) = 1.051

Final E (V) = 1.550

Scan Rate (V/s) = 0.010
Sample Interval (V) = 0.001
Quiet Time (sec) = 2
Sensitivity (A/V) = 0.001
Comp R (ohm) = 5.1

Results:

Channel 1:

Potential/V, Current/A
1.051,   4.083e-5
1.052,   4.231e-5
1.053,   4.033e-5
1.054,   3.835e-5
1.055,   3.683e-5
1.056,   3.534e-5
1.057,   3.399e-5
1.058,   3.287e-5
1.059,   3.174e-5
1.060,   3.077e-5
1.061,   2.992e-5
1.062,   2.907e-5
1.063,   2.840e-5
1.064,   2.772e-5
1.065,   2.711e-5
1.066,   2.658e-5
1.067,   2.600e-5
1.068,   2.553e-5
1.069,   2.514e-5
1.070,   2.466e-5
1.071,   2.437e-5
1.072,   2.404e-5
1.073,   2.360e-5
1.074,   2.332e-5
1.075,   2.297e-5
1.076,   2.273e-5
1.077,   2.253e-5
1.078,   2.224e-5
1.079,   2.202e-5
1.080,   2.181e-5
1.081,   2.160e-5
1.082,   2.146e-5
1.083,   2.124e-5
1.084,   2.115e-5
1.085,   2.100e-5
1.086,   2.080e-5
1.087,   2.071e-5
1.088,   2.059e-5
1.089,   2.042e-5
1.090,   2.038e-5
1.091,   2.026e-5
1.092,   2.014e-5
1.093,   2.010e-5
1.094,   1.996e-5
1.095,   1.993e-5
1.096,   1.985e-5
1.097,   1.978e-5
1.098,   1.974e-5
1.099,   1.963e-5
1.100,   1.959e-5
1.101,   1.957e-5
1.102,   1.949e-5
1.103,   1.950e-5
1.104,   1.947e-5
1.105,   1.940e-5
1.106,   1.943e-5
1.107,   1.936e-5
1.108,   1.934e-5
1.109,   1.933e-5
1.110,   1.931e-5
1.111,   1.932e-5
1.112,   1.929e-5
1.113,   1.928e-5
1.114,   1.933e-5
1.115,   1.923e-5
1.116,   1.929e-5
1.117,   1.934e-5
1.118,   1.925e-5
1.119,   1.928e-5
1.120,   1.929e-5
1.121,   1.928e-5
1.122,   1.935e-5
1.123,   1.937e-5
1.124,   1.936e-5
1.125,   1.940e-5
1.126,   1.935e-5
1.127,   1.940e-5
1.128,   1.948e-5
1.129,   1.944e-5
1.130,   1.950e-5
1.131,   1.946e-5
1.132,   1.954e-5
1.133,   1.960e-5
1.134,   1.950e-5
1.135,   1.964e-5
1.136,   1.966e-5
1.137,   1.962e-5
1.138,   1.970e-5
1.139,   1.968e-5
1.140,   1.969e-5
1.141,   1.980e-5
1.142,   1.976e-5
1.143,   1.977e-5
1.144,   1.982e-5
1.145,   1.982e-5
1.146,   1.992e-5
1.147,   1.984e-5
1.148,   1.994e-5
1.149,   1.998e-5
1.150,   1.988e-5
1.151,   2.003e-5
1.152,   2.004e-5
1.153,   1.999e-5
1.154,   2.007e-5
1.155,   2.007e-5
1.156,   2.007e-5
1.157,   2.015e-5
1.158,   2.008e-5
1.159,   2.016e-5
1.160,   2.015e-5
1.161,   2.020e-5
1.162,   2.024e-5
1.163,   2.018e-5
1.164,   2.020e-5
1.165,   2.029e-5
1.166,   2.020e-5
1.167,   2.027e-5
1.168,   2.030e-5
1.169,   2.027e-5
1.170,   2.033e-5
1.171,   2.026e-5
1.172,   2.028e-5
1.173,   2.037e-5
1.174,   2.026e-5
1.175,   2.037e-5
1.176,   2.035e-5
1.177,   2.031e-5
1.178,   2.037e-5
1.179,   2.031e-5
1.180,   2.035e-5
1.181,   2.040e-5
1.182,   2.031e-5
1.183,   2.035e-5
1.184,   2.036e-5
1.185,   2.031e-5
1.186,   2.040e-5
1.187,   2.040e-5
1.188,   2.028e-5
1.189,   2.039e-5
1.190,   2.030e-5
1.191,   2.036e-5
1.192,   2.030e-5
1.193,   2.033e-5
1.194,   2.037e-5
1.195,   2.029e-5
1.196,   2.028e-5
1.197,   2.032e-5
1.198,   2.025e-5
1.199,   2.033e-5
1.200,   2.034e-5
1.201,   2.025e-5
1.202,   2.031e-5
1.203,   2.022e-5
1.204,   2.024e-5
1.205,   2.026e-5
1.206,   2.024e-5
1.207,   2.023e-5
1.208,   2.023e-5
1.209,   2.018e-5
1.210,   2.025e-5
1.211,   2.019e-5
1.212,   2.024e-5
1.213,   2.026e-5
1.214,   2.015e-5
1.215,   2.018e-5
1.216,   2.017e-5
1.217,   2.011e-5
1.218,   2.018e-5
1.219,   2.013e-5
1.220,   2.011e-5
1.221,   2.014e-5
1.222,   2.006e-5
1.223,   2.014e-5
1.224,   2.011e-5
1.225,   2.010e-5
1.226,   2.017e-5
1.227,   2.010e-5
1.228,   2.008e-5
1.229,   2.012e-5
1.230,   2.004e-5
1.231,   2.009e-5
1.232,   2.011e-5
1.233,   2.003e-5
1.234,   2.010e-5
1.235,   2.007e-5
1.236,   2.008e-5
1.237,   2.014e-5
1.238,   2.012e-5
1.239,   2.013e-5
1.240,   2.009e-5
1.241,   2.008e-5
1.242,   2.014e-5
1.243,   2.004e-5
1.244,   2.014e-5
1.245,   2.020e-5
1.246,   2.007e-5
1.247,   2.019e-5
1.248,   2.019e-5
1.249,   2.012e-5
1.250,   2.025e-5
1.251,   2.023e-5
1.252,   2.013e-5
1.253,   2.026e-5
1.254,   2.019e-5
1.255,   2.027e-5
1.256,   2.027e-5
1.257,   2.027e-5
1.258,   2.036e-5
1.259,   2.031e-5
1.260,   2.038e-5
1.261,   2.047e-5
1.262,   2.039e-5
1.263,   2.050e-5
1.264,   2.055e-5
1.265,   2.048e-5
1.266,   2.058e-5
1.267,   2.057e-5
1.268,   2.060e-5
1.269,   2.072e-5
1.270,   2.065e-5
1.271,   2.077e-5
1.272,   2.080e-5
1.273,   2.081e-5
1.274,   2.094e-5
1.275,   2.090e-5
1.276,   2.111e-5
1.277,   2.110e-5
1.278,   2.105e-5
1.279,   2.116e-5
1.280,   2.122e-5
1.281,   2.126e-5
1.282,   2.141e-5
1.283,   2.139e-5
1.284,   2.145e-5
1.285,   2.160e-5
1.286,   2.158e-5
1.287,   2.170e-5
1.288,   2.175e-5
1.289,   2.185e-5
1.290,   2.195e-5
1.291,   2.194e-5
1.292,   2.206e-5
1.293,   2.225e-5
1.294,   2.221e-5
1.295,   2.240e-5
1.296,   2.252e-5
1.297,   2.252e-5
1.298,   2.270e-5
1.299,   2.280e-5
1.300,   2.285e-5
1.301,   2.307e-5
1.302,   2.312e-5
1.303,   2.328e-5
1.304,   2.343e-5
1.305,   2.352e-5
1.306,   2.374e-5
1.307,   2.378e-5
1.308,   2.400e-5
1.309,   2.423e-5
1.310,   2.422e-5
1.311,   2.450e-5
1.312,   2.471e-5
1.313,   2.481e-5
1.314,   2.509e-5
1.315,   2.529e-5
1.316,   2.544e-5
1.317,   2.570e-5
1.318,   2.585e-5
1.319,   2.614e-5
1.320,   2.643e-5
1.321,   2.662e-5
1.322,   2.694e-5
1.323,   2.709e-5
1.324,   2.744e-5
1.325,   2.779e-5
1.326,   2.799e-5
1.327,   2.847e-5
1.328,   2.883e-5
1.329,   2.906e-5
1.330,   2.959e-5
1.331,   2.992e-5
1.332,   3.033e-5
1.333,   3.087e-5
1.334,   3.127e-5
1.335,   3.181e-5
1.336,   3.232e-5
1.337,   3.280e-5
1.338,   3.345e-5
1.339,   3.397e-5
1.340,   3.473e-5
1.341,   3.547e-5
1.342,   3.598e-5
1.343,   3.685e-5
1.344,   3.752e-5
1.345,   3.824e-5
1.346,   3.922e-5
1.347,   4.007e-5
1.348,   4.101e-5
1.349,   4.215e-5
1.350,   4.306e-5
1.351,   4.428e-5
1.352,   4.551e-5
1.353,   4.676e-5
1.354,   4.817e-5
1.355,   4.945e-5
1.356,   5.101e-5
1.357,   5.266e-5
1.358,   5.415e-5
1.359,   5.607e-5
1.360,   5.776e-5
1.361,   5.962e-5
1.362,   6.184e-5
1.363,   6.393e-5
1.364,   6.621e-5
1.365,   6.866e-5
1.366,   7.127e-5
1.367,   7.391e-5
1.368,   7.675e-5
1.369,   7.978e-5
1.370,   8.299e-5
1.371,   8.614e-5
1.372,   8.971e-5
1.373,   9.350e-5
1.374,   9.717e-5
1.375,   1.014e-4
1.376,   1.057e-4
1.377,   1.101e-4
1.378,   1.150e-4
1.379,   1.200e-4
1.380,   1.253e-4
1.381,   1.309e-4
1.382,   1.365e-4
1.383,   1.429e-4
1.384,   1.493e-4
1.385,   1.561e-4
1.386,   1.635e-4
1.387,   1.709e-4
1.388,   1.789e-4
1.389,   1.873e-4
1.390,   1.958e-4
1.391,   2.052e-4
1.392,   2.149e-4
1.393,   2.252e-4
1.394,   2.360e-4
1.395,   2.471e-4
1.396,   2.591e-4
1.397,   2.716e-4
1.398,   2.846e-4
1.399,   2.985e-4
1.400,   3.129e-4
1.401,   3.281e-4
1.402,   3.443e-4
1.403,   3.606e-4
1.404,   3.783e-4
1.405,   3.971e-4
1.406,   4.162e-4
1.407,   4.366e-4
1.408,   4.579e-4
1.409,   4.801e-4
1.410,   5.040e-4
1.411,   5.283e-4
1.412,   5.543e-4
1.413,   5.811e-4
1.414,   6.091e-4
1.415,   6.388e-4
1.416,   6.694e-4
1.417,   7.021e-4
1.418,   7.360e-4
1.419,   7.715e-4
1.420,   8.102e-4
1.421,   8.477e-4
1.422,   8.881e-4
1.423,   9.307e-4
1.424,   9.755e-4
1.425,   1.021e-3
1.426,   1.070e-3
1.427,   1.120e-3
1.428,   1.172e-3
1.429,   1.225e-3
1.430,   1.282e-3
1.431,   1.341e-3
1.432,   1.402e-3
1.433,   1.466e-3
1.434,   1.532e-3
1.435,   1.599e-3
1.436,   1.669e-3
1.437,   1.742e-3
1.438,   1.816e-3
1.439,   1.897e-3
1.440,   1.976e-3
1.441,   2.061e-3
1.442,   2.147e-3
1.443,   2.238e-3
1.444,   2.333e-3
1.445,   2.431e-3
1.446,   2.531e-3
1.447,   2.632e-3
1.448,   2.730e-3
1.449,   2.837e-3
1.450,   2.941e-3
1.451,   3.043e-3
1.452,   3.161e-3
1.453,   3.284e-3
1.454,   3.411e-3
1.455,   3.524e-3
1.456,   3.655e-3
1.457,   3.792e-3
1.458,   3.929e-3
1.459,   4.069e-3
1.460,   4.203e-3
1.461,   4.346e-3
1.462,   4.481e-3
1.463,   4.621e-3
1.464,   4.760e-3
1.465,   4.925e-3
1.466,   5.099e-3
1.467,   5.228e-3
1.468,   5.372e-3
1.469,   5.536e-3
1.470,   5.745e-3
1.471,   5.884e-3
1.472,   5.999e-3
1.473,   6.164e-3
1.474,   6.371e-3
1.475,   6.508e-3
1.476,   6.643e-3
1.477,   6.852e-3
1.478,   6.998e-3
1.479,   7.125e-3
1.480,   7.315e-3
1.481,   7.531e-3
1.482,   7.718e-3
1.483,   7.867e-3
1.484,   8.004e-3
1.485,   8.271e-3
1.486,   8.475e-3
1.487,   8.638e-3
1.488,   8.770e-3
1.489,   8.952e-3
1.490,   9.153e-3
1.491,   9.343e-3
1.492,   9.573e-3
1.493,   9.733e-3
1.494,   9.911e-3
1.495,   1.006e-2
1.496,   1.006e-2
1.497,   1.006e-2
1.498,   1.006e-2
1.499,   1.006e-2
1.500,   1.006e-2
1.501,   1.006e-2
1.502,   1.006e-2
1.503,   1.006e-2
1.504,   1.006e-2
1.505,   1.006e-2
1.506,   1.006e-2
1.507,   1.006e-2
1.508,   1.006e-2
1.509,   1.006e-2
1.510,   1.006e-2
1.511,   1.006e-2
1.512,   1.006e-2
1.513,   1.006e-2
1.514,   1.006e-2
1.515,   1.006e-2
1.516,   1.006e-2
1.517,   1.006e-2
1.518,   1.006e-2
1.519,   1.006e-2
1.520,   1.006e-2
1.521,   1.006e-2
1.522,   1.006e-2
1.523,   1.006e-2
1.524,   1.006e-2
1.525,   1.006e-2
1.526,   1.006e-2
1.527,   1.006e-2
1.528,   1.006e-2
1.529,   1.006e-2
1.530,   1.006e-2
1.531,   1.006e-2
1.532,   1.006e-2
1.533,   1.006e-2
1.534,   1.006e-2
1.535,   1.006e-2
1.536,   1.006e-2
1.537,   1.006e-2
1.538,   1.006e-2
1.539,   1.006e-2
1.540,   1.006e-2
1.541,   1.006e-2
1.542,   1.006e-2
1.543,   1.006e-2
1.544,   1.006e-2
1.545,   1.006e-2
1.546,   1.006e-2
1.547,   1.006e-2
1.548,   1.006e-2
1.549,   1.006e-2
1.550,   1.006e-2