File: Experimental Records, Raw Data, and Supplementary Notes and Figures/batch4/final400/B4_VARIANCE_400_#1_High_Quality(#25)-377mV.txt
Mar. 27, 2023   14:11:01
Linear Sweep Voltammetry
File: d:\current work\al_oer\electrochemical test data\batch 4\400\B4_VARIANCE_400_#1_High_Quality(#25)-377mV.txt
Data Source:  Experiment
Instrument Model:  CHI660E
Header:
Note:

Init E (V) = 1.109

Final E (V) = 1.681

Scan Rate (V/s) = 0.010
Sample Interval (V) = 0.001
Quiet Time (sec) = 2
Sensitivity (A/V) = 0.001
Comp R (ohm) = 4.9

Results:

Channel 1:
Ep = 1.401V
ip = 3.254e-4A
Ah = 5.868e-3C

Potential/V, Current/A
1.109,   6.149E-05
1.11,   5.714E-05
1.111,   5.271E-05
1.112,   4.890E-05
1.113,   4.565E-05
1.114,   4.283E-05
1.115,   4.031E-05
1.116,   3.811E-05
1.117,   3.619E-05
1.118,   3.437E-05
1.119,   3.270E-05
1.12,   3.132E-05
1.121,   3.014E-05
1.122,   2.901E-05
1.123,   2.794E-05
1.124,   2.708E-05
1.125,   2.618E-05
1.126,   2.549E-05
1.127,   2.473E-05
1.128,   2.397E-05
1.129,   2.342E-05
1.13,   2.290E-05
1.131,   2.234E-05
1.132,   2.190E-05
1.133,   2.138E-05
1.134,   2.098E-05
1.135,   2.059E-05
1.136,   2.011E-05
1.137,   1.983E-05
1.138,   1.958E-05
1.139,   1.927E-05
1.14,   1.894E-05
1.141,   1.867E-05
1.142,   1.842E-05
1.143,   1.814E-05
1.144,   1.799E-05
1.145,   1.789E-05
1.146,   1.764E-05
1.147,   1.739E-05
1.148,   1.720E-05
1.149,   1.705E-05
1.15,   1.682E-05
1.151,   1.676E-05
1.152,   1.658E-05
1.153,   1.646E-05
1.154,   1.638E-05
1.155,   1.626E-05
1.156,   1.613E-05
1.157,   1.597E-05
1.158,   1.595E-05
1.159,   1.582E-05
1.16,   1.571E-05
1.161,   1.558E-05
1.162,   1.548E-05
1.163,   1.540E-05
1.164,   1.537E-05
1.165,   1.527E-05
1.166,   1.523E-05
1.167,   1.520E-05
1.168,   1.516E-05
1.169,   1.505E-05
1.17,   1.498E-05
1.171,   1.499E-05
1.172,   1.493E-05
1.173,   1.478E-05
1.174,   1.474E-05
1.175,   1.469E-05
1.176,   1.473E-05
1.177,   1.470E-05
1.178,   1.461E-05
1.179,   1.455E-05
1.18,   1.454E-05
1.181,   1.452E-05
1.182,   1.460E-05
1.183,   1.452E-05
1.184,   1.446E-05
1.185,   1.442E-05
1.186,   1.447E-05
1.187,   1.438E-05
1.188,   1.443E-05
1.189,   1.439E-05
1.19,   1.438E-05
1.191,   1.435E-05
1.192,   1.432E-05
1.193,   1.430E-05
1.194,   1.432E-05
1.195,   1.431E-05
1.196,   1.430E-05
1.197,   1.430E-05
1.198,   1.427E-05
1.199,   1.428E-05
1.2,   1.418E-05
1.201,   1.419E-05
1.202,   1.414E-05
1.203,   1.417E-05
1.204,   1.426E-05
1.205,   1.417E-05
1.206,   1.419E-05
1.207,   1.415E-05
1.208,   1.418E-05
1.209,   1.426E-05
1.21,   1.421E-05
1.211,   1.415E-05
1.212,   1.407E-05
1.213,   1.422E-05
1.214,   1.424E-05
1.215,   1.424E-05
1.216,   1.417E-05
1.217,   1.421E-05
1.218,   1.415E-05
1.219,   1.421E-05
1.22,   1.414E-05
1.221,   1.422E-05
1.222,   1.430E-05
1.223,   1.430E-05
1.224,   1.423E-05
1.225,   1.431E-05
1.226,   1.421E-05
1.227,   1.423E-05
1.228,   1.427E-05
1.229,   1.428E-05
1.23,   1.434E-05
1.231,   1.426E-05
1.232,   1.427E-05
1.233,   1.440E-05
1.234,   1.437E-05
1.235,   1.437E-05
1.236,   1.443E-05
1.237,   1.428E-05
1.238,   1.431E-05
1.239,   1.442E-05
1.24,   1.447E-05
1.241,   1.438E-05
1.242,   1.443E-05
1.243,   1.450E-05
1.244,   1.458E-05
1.245,   1.450E-05
1.246,   1.451E-05
1.247,   1.452E-05
1.248,   1.461E-05
1.249,   1.467E-05
1.25,   1.458E-05
1.251,   1.464E-05
1.252,   1.464E-05
1.253,   1.458E-05
1.254,   1.464E-05
1.255,   1.480E-05
1.256,   1.478E-05
1.257,   1.476E-05
1.258,   1.475E-05
1.259,   1.491E-05
1.26,   1.491E-05
1.261,   1.491E-05
1.262,   1.488E-05
1.263,   1.497E-05
1.264,   1.503E-05
1.265,   1.501E-05
1.266,   1.500E-05
1.267,   1.499E-05
1.268,   1.513E-05
1.269,   1.508E-05
1.27,   1.518E-05
1.271,   1.523E-05
1.272,   1.522E-05
1.273,   1.527E-05
1.274,   1.536E-05
1.275,   1.544E-05
1.276,   1.545E-05
1.277,   1.542E-05
1.278,   1.538E-05
1.279,   1.549E-05
1.28,   1.553E-05
1.281,   1.560E-05
1.282,   1.562E-05
1.283,   1.561E-05
1.284,   1.570E-05
1.285,   1.568E-05
1.286,   1.571E-05
1.287,   1.579E-05
1.288,   1.586E-05
1.289,   1.589E-05
1.29,   1.580E-05
1.291,   1.597E-05
1.292,   1.606E-05
1.293,   1.607E-05
1.294,   1.610E-05
1.295,   1.607E-05
1.296,   1.622E-05
1.297,   1.629E-05
1.298,   1.629E-05
1.299,   1.636E-05
1.3,   1.633E-05
1.301,   1.639E-05
1.302,   1.646E-05
1.303,   1.657E-05
1.304,   1.665E-05
1.305,   1.664E-05
1.306,   1.664E-05
1.307,   1.660E-05
1.308,   1.676E-05
1.309,   1.676E-05
1.31,   1.687E-05
1.311,   1.697E-05
1.312,   1.703E-05
1.313,   1.707E-05
1.314,   1.708E-05
1.315,   1.713E-05
1.316,   1.715E-05
1.317,   1.723E-05
1.318,   1.728E-05
1.319,   1.735E-05
1.32,   1.734E-05
1.321,   1.746E-05
1.322,   1.755E-05
1.323,   1.759E-05
1.324,   1.768E-05
1.325,   1.777E-05
1.326,   1.776E-05
1.327,   1.785E-05
1.328,   1.794E-05
1.329,   1.796E-05
1.33,   1.801E-05
1.331,   1.818E-05
1.332,   1.822E-05
1.333,   1.818E-05
1.334,   1.830E-05
1.335,   1.841E-05
1.336,   1.843E-05
1.337,   1.848E-05
1.338,   1.862E-05
1.339,   1.874E-05
1.34,   1.865E-05
1.341,   1.891E-05
1.342,   1.887E-05
1.343,   1.895E-05
1.344,   1.904E-05
1.345,   1.919E-05
1.346,   1.923E-05
1.347,   1.930E-05
1.348,   1.939E-05
1.349,   1.954E-05
1.35,   1.957E-05
1.351,   1.965E-05
1.352,   1.964E-05
1.353,   1.988E-05
1.354,   1.989E-05
1.355,   1.997E-05
1.356,   2.006E-05
1.357,   2.015E-05
1.358,   2.026E-05
1.359,   2.036E-05
1.36,   2.044E-05
1.361,   2.053E-05
1.362,   2.077E-05
1.363,   2.082E-05
1.364,   2.093E-05
1.365,   2.093E-05
1.366,   2.110E-05
1.367,   2.125E-05
1.368,   2.137E-05
1.369,   2.147E-05
1.37,   2.156E-05
1.371,   2.181E-05
1.372,   2.190E-05
1.373,   2.198E-05
1.374,   2.204E-05
1.375,   2.226E-05
1.376,   2.240E-05
1.377,   2.251E-05
1.378,   2.269E-05
1.379,   2.278E-05
1.38,   2.303E-05
1.381,   2.316E-05
1.382,   2.331E-05
1.383,   2.355E-05
1.384,   2.366E-05
1.385,   2.384E-05
1.386,   2.405E-05
1.387,   2.434E-05
1.388,   2.454E-05
1.389,   2.474E-05
1.39,   2.511E-05
1.391,   2.529E-05
1.392,   2.548E-05
1.393,   2.577E-05
1.394,   2.608E-05
1.395,   2.640E-05
1.396,   2.672E-05
1.397,   2.703E-05
1.398,   2.737E-05
1.399,   2.773E-05
1.4,   2.807E-05
1.401,   2.847E-05
1.402,   2.897E-05
1.403,   2.941E-05
1.404,   2.993E-05
1.405,   3.030E-05
1.406,   3.079E-05
1.407,   3.136E-05
1.408,   3.199E-05
1.409,   3.266E-05
1.41,   3.328E-05
1.411,   3.393E-05
1.412,   3.492E-05
1.413,   3.561E-05
1.414,   3.641E-05
1.415,   3.738E-05
1.416,   3.826E-05
1.417,   3.923E-05
1.418,   4.035E-05
1.419,   4.149E-05
1.42,   4.264E-05
1.421,   4.391E-05
1.422,   4.519E-05
1.423,   4.647E-05
1.424,   4.792E-05
1.425,   4.945E-05
1.426,   5.100E-05
1.427,   5.266E-05
1.428,   5.451E-05
1.429,   5.642E-05
1.43,   5.843E-05
1.431,   6.055E-05
1.432,   6.255E-05
1.433,   6.479E-05
1.434,   6.715E-05
1.435,   6.956E-05
1.436,   7.227E-05
1.437,   7.504E-05
1.438,   7.792E-05
1.439,   8.087E-05
1.44,   8.393E-05
1.441,   8.711E-05
1.442,   9.065E-05
1.443,   9.412E-05
1.444,   9.789E-05
1.445,   1.016E-04
1.446,   1.055E-04
1.447,   1.096E-04
1.448,   1.139E-04
1.449,   1.186E-04
1.45,   1.234E-04
1.451,   1.283E-04
1.452,   1.332E-04
1.453,   1.385E-04
1.454,   1.441E-04
1.455,   1.495E-04
1.456,   1.555E-04
1.457,   1.614E-04
1.458,   1.676E-04
1.459,   1.740E-04
1.46,   1.808E-04
1.461,   1.877E-04
1.462,   1.947E-04
1.463,   2.023E-04
1.464,   2.097E-04
1.465,   2.175E-04
1.466,   2.249E-04
1.467,   2.332E-04
1.468,   2.416E-04
1.469,   2.504E-04
1.47,   2.595E-04
1.471,   2.686E-04
1.472,   2.782E-04
1.473,   2.878E-04
1.474,   2.976E-04
1.475,   3.078E-04
1.476,   3.186E-04
1.477,   3.292E-04
1.478,   3.399E-04
1.479,   3.510E-04
1.48,   3.625E-04
1.481,   3.743E-04
1.482,   3.864E-04
1.483,   3.986E-04
1.484,   4.108E-04
1.485,   4.235E-04
1.486,   4.363E-04
1.487,   4.498E-04
1.488,   4.631E-04
1.489,   4.767E-04
1.49,   4.906E-04
1.491,   5.048E-04
1.492,   5.190E-04
1.493,   5.333E-04
1.494,   5.477E-04
1.495,   5.624E-04
1.496,   5.770E-04
1.497,   5.925E-04
1.498,   6.078E-04
1.499,   6.238E-04
1.5,   6.397E-04
1.501,   6.561E-04
1.502,   6.726E-04
1.503,   6.891E-04
1.504,   7.056E-04
1.505,   7.227E-04
1.506,   7.398E-04
1.507,   7.569E-04
1.508,   7.739E-04
1.509,   7.904E-04
1.51,   8.075E-04
1.511,   8.246E-04
1.512,   8.423E-04
1.513,   8.594E-04
1.514,   8.764E-04
1.515,   8.941E-04
1.516,   9.124E-04
1.517,   9.306E-04
1.518,   9.489E-04
1.519,   9.671E-04
1.52,   9.848E-04
1.521,   1.002E-03
1.522,   1.020E-03
1.523,   1.038E-03
1.524,   1.055E-03
1.525,   1.074E-03
1.526,   1.091E-03
1.527,   1.109E-03
1.528,   1.127E-03
1.529,   1.144E-03
1.53,   1.162E-03
1.531,   1.179E-03
1.532,   1.197E-03
1.533,   1.215E-03
1.534,   1.232E-03
1.535,   1.249E-03
1.536,   1.265E-03
1.537,   1.283E-03
1.538,   1.301E-03
1.539,   1.317E-03
1.54,   1.333E-03
1.541,   1.350E-03
1.542,   1.366E-03
1.543,   1.383E-03
1.544,   1.399E-03
1.545,   1.415E-03
1.546,   1.430E-03
1.547,   1.445E-03
1.548,   1.460E-03
1.549,   1.476E-03
1.55,   1.493E-03
1.551,   1.507E-03
1.552,   1.521E-03
1.553,   1.536E-03
1.554,   1.549E-03
1.555,   1.563E-03
1.556,   1.575E-03
1.557,   1.588E-03
1.558,   1.601E-03
1.559,   1.616E-03
1.56,   1.630E-03
1.561,   1.642E-03
1.562,   1.656E-03
1.563,   1.667E-03
1.564,   1.679E-03
1.565,   1.690E-03
1.566,   1.703E-03
1.567,   1.715E-03
1.568,   1.726E-03
1.569,   1.737E-03
1.57,   1.748E-03
1.571,   1.759E-03
1.572,   1.769E-03
1.573,   1.779E-03
1.574,   1.788E-03
1.575,   1.797E-03
1.576,   1.806E-03
1.577,   1.815E-03
1.578,   1.824E-03
1.579,   1.831E-03
1.58,   1.841E-03
1.581,   1.851E-03
1.582,   1.859E-03
1.583,   1.867E-03
1.584,   1.873E-03
1.585,   1.879E-03
1.586,   1.885E-03
1.587,   1.891E-03
1.588,   1.897E-03
1.589,   1.902E-03
1.59,   1.907E-03
1.591,   1.914E-03
1.592,   1.919E-03
1.593,   1.923E-03
1.594,   1.928E-03
1.595,   1.933E-03
1.596,   1.937E-03
1.597,   1.940E-03
1.598,   1.943E-03
1.599,   1.947E-03
1.6,   1.949E-03
1.601,   1.951E-03
1.602,   1.953E-03
1.603,   1.955E-03
1.604,   1.957E-03
1.605,   1.958E-03
1.606,   1.960E-03
1.607,   1.962E-03
1.608,   1.963E-03
1.609,   1.963E-03
1.61,   1.961E-03
1.611,   1.961E-03
1.612,   1.961E-03
1.613,   1.961E-03
1.614,   1.960E-03
1.615,   1.958E-03
1.616,   1.960E-03
1.617,   1.960E-03
1.618,   1.955E-03
1.619,   1.954E-03
1.62,   1.953E-03
1.621,   1.950E-03
1.622,   1.944E-03
1.623,   1.940E-03
1.624,   1.937E-03
1.625,   1.934E-03
1.626,   1.929E-03
1.627,   1.925E-03
1.628,   1.923E-03
1.629,   1.920E-03
1.63,   1.917E-03
1.631,   1.912E-03
1.632,   1.909E-03
1.633,   1.904E-03
1.634,   1.897E-03
1.635,   1.892E-03
1.636,   1.887E-03
1.637,   1.881E-03
1.638,   1.875E-03
1.639,   1.868E-03
1.64,   1.860E-03
1.641,   1.855E-03
1.642,   1.849E-03
1.643,   1.842E-03
1.644,   1.836E-03
1.645,   1.829E-03
1.646,   1.822E-03
1.647,   1.815E-03
1.648,   1.806E-03
1.649,   1.798E-03
1.65,   1.791E-03
1.651,   1.783E-03
1.652,   1.779E-03
1.653,   1.771E-03
1.654,   1.763E-03
1.655,   1.757E-03
1.656,   1.749E-03
1.657,   1.740E-03
1.658,   1.732E-03
1.659,   1.724E-03
1.66,   1.715E-03
1.661,   1.706E-03
1.662,   1.696E-03
1.663,   1.686E-03
1.664,   1.680E-03
1.665,   1.671E-03
1.666,   1.663E-03
1.667,   1.655E-03
1.668,   1.646E-03
1.669,   1.637E-03
1.67,   1.628E-03
1.671,   1.619E-03
1.672,   1.610E-03
1.673,   1.600E-03
1.674,   1.593E-03
1.675,   1.584E-03
1.676,   1.577E-03
1.677,   1.569E-03
1.678,   1.560E-03
1.679,   1.550E-03
1.68,   1.542E-03
1.681,   1.533E-03