File: Experimental Records, Raw Data, and Supplementary Notes and Figures/batch4/final400/B4_VARIANCE_400_#2_High_Quality(#26)-357mV.txt
Mar. 26, 2023   15:21:29
Linear Sweep Voltammetry
File: d:\current work\al_oer\electrochemical test data\batch 4\400\B4_VARIANCE_400_#2_High_Quality(#26)-357mV.txt
Data Source:  Experiment
Instrument Model:  CHI660E
Header:
Note:

Init E (V) = 1.117

Final E (V) = 1.616

Scan Rate (V/s) = 0.010
Sample Interval (V) = 0.001
Quiet Time (sec) = 2
Sensitivity (A/V) = 0.001
Comp R (ohm) = 7.2

Results:

Channel 1:

Potential/V, Current/A
1.117,   -1.270e-6
1.118,   -4.639e-8
1.119,   2.422e-7
1.120,   4.270e-7
1.121,   5.764e-7
1.122,   7.172e-7
1.123,   8.186e-7
1.124,   9.428e-7
1.125,   1.007e-6
1.126,   1.101e-6
1.127,   1.226e-6
1.128,   1.253e-6
1.129,   1.342e-6
1.130,   1.410e-6
1.131,   1.440e-6
1.132,   1.496e-6
1.133,   1.552e-6
1.134,   1.607e-6
1.135,   1.659e-6
1.136,   1.700e-6
1.137,   1.724e-6
1.138,   1.776e-6
1.139,   1.813e-6
1.140,   1.884e-6
1.141,   1.879e-6
1.142,   1.934e-6
1.143,   1.971e-6
1.144,   1.962e-6
1.145,   2.004e-6
1.146,   2.049e-6
1.147,   2.067e-6
1.148,   2.084e-6
1.149,   2.125e-6
1.150,   2.148e-6
1.151,   2.197e-6
1.152,   2.192e-6
1.153,   2.218e-6
1.154,   2.221e-6
1.155,   2.256e-6
1.156,   2.298e-6
1.157,   2.330e-6
1.158,   2.334e-6
1.159,   2.357e-6
1.160,   2.372e-6
1.161,   2.415e-6
1.162,   2.419e-6
1.163,   2.446e-6
1.164,   2.489e-6
1.165,   2.468e-6
1.166,   2.484e-6
1.167,   2.523e-6
1.168,   2.556e-6
1.169,   2.570e-6
1.170,   2.578e-6
1.171,   2.552e-6
1.172,   2.598e-6
1.173,   2.638e-6
1.174,   2.637e-6
1.175,   2.661e-6
1.176,   2.696e-6
1.177,   2.712e-6
1.178,   2.740e-6
1.179,   2.775e-6
1.180,   2.794e-6
1.181,   2.797e-6
1.182,   2.805e-6
1.183,   2.850e-6
1.184,   2.866e-6
1.185,   2.884e-6
1.186,   2.880e-6
1.187,   2.885e-6
1.188,   2.952e-6
1.189,   2.959e-6
1.190,   2.987e-6
1.191,   3.021e-6
1.192,   3.017e-6
1.193,   2.997e-6
1.194,   3.044e-6
1.195,   3.080e-6
1.196,   3.105e-6
1.197,   3.108e-6
1.198,   3.139e-6
1.199,   3.145e-6
1.200,   3.158e-6
1.201,   3.174e-6
1.202,   3.182e-6
1.203,   3.206e-6
1.204,   3.220e-6
1.205,   3.250e-6
1.206,   3.281e-6
1.207,   3.285e-6
1.208,   3.268e-6
1.209,   3.280e-6
1.210,   3.319e-6
1.211,   3.330e-6
1.212,   3.344e-6
1.213,   3.340e-6
1.214,   3.382e-6
1.215,   3.406e-6
1.216,   3.403e-6
1.217,   3.435e-6
1.218,   3.419e-6
1.219,   3.466e-6
1.220,   3.476e-6
1.221,   3.497e-6
1.222,   3.509e-6
1.223,   3.515e-6
1.224,   3.516e-6
1.225,   3.546e-6
1.226,   3.554e-6
1.227,   3.541e-6
1.228,   3.586e-6
1.229,   3.587e-6
1.230,   3.601e-6
1.231,   3.608e-6
1.232,   3.632e-6
1.233,   3.663e-6
1.234,   3.657e-6
1.235,   3.654e-6
1.236,   3.698e-6
1.237,   3.674e-6
1.238,   3.669e-6
1.239,   3.702e-6
1.240,   3.709e-6
1.241,   3.744e-6
1.242,   3.730e-6
1.243,   3.743e-6
1.244,   3.774e-6
1.245,   3.766e-6
1.246,   3.802e-6
1.247,   3.824e-6
1.248,   3.796e-6
1.249,   3.811e-6
1.250,   3.807e-6
1.251,   3.811e-6
1.252,   3.839e-6
1.253,   3.841e-6
1.254,   3.824e-6
1.255,   3.885e-6
1.256,   3.860e-6
1.257,   3.868e-6
1.258,   3.888e-6
1.259,   3.874e-6
1.260,   3.914e-6
1.261,   3.907e-6
1.262,   3.920e-6
1.263,   3.930e-6
1.264,   3.900e-6
1.265,   3.926e-6
1.266,   3.928e-6
1.267,   3.927e-6
1.268,   3.952e-6
1.269,   3.910e-6
1.270,   3.971e-6
1.271,   3.936e-6
1.272,   3.947e-6
1.273,   3.965e-6
1.274,   3.977e-6
1.275,   4.001e-6
1.276,   4.007e-6
1.277,   3.966e-6
1.278,   4.006e-6
1.279,   4.018e-6
1.280,   3.976e-6
1.281,   4.017e-6
1.282,   4.010e-6
1.283,   4.028e-6
1.284,   4.051e-6
1.285,   4.064e-6
1.286,   4.042e-6
1.287,   4.072e-6
1.288,   4.070e-6
1.289,   4.055e-6
1.290,   4.065e-6
1.291,   4.076e-6
1.292,   4.102e-6
1.293,   4.058e-6
1.294,   4.082e-6
1.295,   4.109e-6
1.296,   4.119e-6
1.297,   4.130e-6
1.298,   4.099e-6
1.299,   4.107e-6
1.300,   4.154e-6
1.301,   4.159e-6
1.302,   4.153e-6
1.303,   4.183e-6
1.304,   4.198e-6
1.305,   4.177e-6
1.306,   4.168e-6
1.307,   4.190e-6
1.308,   4.205e-6
1.309,   4.191e-6
1.310,   4.245e-6
1.311,   4.244e-6
1.312,   4.239e-6
1.313,   4.253e-6
1.314,   4.275e-6
1.315,   4.274e-6
1.316,   4.268e-6
1.317,   4.294e-6
1.318,   4.274e-6
1.319,   4.310e-6
1.320,   4.302e-6
1.321,   4.356e-6
1.322,   4.360e-6
1.323,   4.341e-6
1.324,   4.354e-6
1.325,   4.340e-6
1.326,   4.407e-6
1.327,   4.431e-6
1.328,   4.383e-6
1.329,   4.455e-6
1.330,   4.481e-6
1.331,   4.473e-6
1.332,   4.452e-6
1.333,   4.481e-6
1.334,   4.482e-6
1.335,   4.539e-6
1.336,   4.487e-6
1.337,   4.529e-6
1.338,   4.559e-6
1.339,   4.604e-6
1.340,   4.633e-6
1.341,   4.587e-6
1.342,   4.657e-6
1.343,   4.686e-6
1.344,   4.678e-6
1.345,   4.673e-6
1.346,   4.692e-6
1.347,   4.697e-6
1.348,   4.757e-6
1.349,   4.781e-6
1.350,   4.808e-6
1.351,   4.835e-6
1.352,   4.824e-6
1.353,   4.842e-6
1.354,   4.838e-6
1.355,   4.860e-6
1.356,   4.911e-6
1.357,   4.952e-6
1.358,   4.960e-6
1.359,   4.981e-6
1.360,   4.978e-6
1.361,   5.018e-6
1.362,   5.055e-6
1.363,   5.058e-6
1.364,   5.118e-6
1.365,   5.103e-6
1.366,   5.137e-6
1.367,   5.195e-6
1.368,   5.208e-6
1.369,   5.221e-6
1.370,   5.261e-6
1.371,   5.291e-6
1.372,   5.309e-6
1.373,   5.308e-6
1.374,   5.375e-6
1.375,   5.400e-6
1.376,   5.398e-6
1.377,   5.449e-6
1.378,   5.522e-6
1.379,   5.482e-6
1.380,   5.549e-6
1.381,   5.592e-6
1.382,   5.616e-6
1.383,   5.674e-6
1.384,   5.695e-6
1.385,   5.766e-6
1.386,   5.795e-6
1.387,   5.821e-6
1.388,   5.880e-6
1.389,   5.858e-6
1.390,   5.926e-6
1.391,   5.976e-6
1.392,   5.990e-6
1.393,   6.032e-6
1.394,   6.116e-6
1.395,   6.170e-6
1.396,   6.221e-6
1.397,   6.256e-6
1.398,   6.300e-6
1.399,   6.397e-6
1.400,   6.437e-6
1.401,   6.516e-6
1.402,   6.552e-6
1.403,   6.593e-6
1.404,   6.679e-6
1.405,   6.741e-6
1.406,   6.835e-6
1.407,   6.895e-6
1.408,   6.951e-6
1.409,   7.073e-6
1.410,   7.142e-6
1.411,   7.198e-6
1.412,   7.311e-6
1.413,   7.376e-6
1.414,   7.472e-6
1.415,   7.619e-6
1.416,   7.672e-6
1.417,   7.775e-6
1.418,   7.897e-6
1.419,   8.016e-6
1.420,   8.172e-6
1.421,   8.226e-6
1.422,   8.386e-6
1.423,   8.537e-6
1.424,   8.609e-6
1.425,   8.841e-6
1.426,   8.991e-6
1.427,   9.149e-6
1.428,   9.356e-6
1.429,   9.520e-6
1.430,   9.716e-6
1.431,   9.972e-6
1.432,   1.014e-5
1.433,   1.032e-5
1.434,   1.055e-5
1.435,   1.079e-5
1.436,   1.106e-5
1.437,   1.130e-5
1.438,   1.156e-5
1.439,   1.186e-5
1.440,   1.213e-5
1.441,   1.248e-5
1.442,   1.281e-5
1.443,   1.314e-5
1.444,   1.351e-5
1.445,   1.382e-5
1.446,   1.425e-5
1.447,   1.467e-5
1.448,   1.506e-5
1.449,   1.556e-5
1.450,   1.601e-5
1.451,   1.646e-5
1.452,   1.700e-5
1.453,   1.749e-5
1.454,   1.807e-5
1.455,   1.868e-5
1.456,   1.922e-5
1.457,   1.989e-5
1.458,   2.059e-5
1.459,   2.124e-5
1.460,   2.201e-5
1.461,   2.276e-5
1.462,   2.353e-5
1.463,   2.441e-5
1.464,   2.525e-5
1.465,   2.619e-5
1.466,   2.715e-5
1.467,   2.810e-5
1.468,   2.919e-5
1.469,   3.024e-5
1.470,   3.140e-5
1.471,   3.263e-5
1.472,   3.376e-5
1.473,   3.512e-5
1.474,   3.648e-5
1.475,   3.778e-5
1.476,   3.919e-5
1.477,   4.069e-5
1.478,   4.232e-5
1.479,   4.393e-5
1.480,   4.560e-5
1.481,   4.743e-5
1.482,   4.932e-5
1.483,   5.132e-5
1.484,   5.339e-5
1.485,   5.540e-5
1.486,   5.754e-5
1.487,   5.983e-5
1.488,   6.216e-5
1.489,   6.471e-5
1.490,   6.727e-5
1.491,   6.992e-5
1.492,   7.270e-5
1.493,   7.560e-5
1.494,   7.861e-5
1.495,   8.177e-5
1.496,   8.501e-5
1.497,   8.830e-5
1.498,   9.178e-5
1.499,   9.531e-5
1.500,   9.906e-5
1.501,   1.029e-4
1.502,   1.069e-4
1.503,   1.111e-4
1.504,   1.153e-4
1.505,   1.198e-4
1.506,   1.245e-4
1.507,   1.293e-4
1.508,   1.342e-4
1.509,   1.392e-4
1.510,   1.445e-4
1.511,   1.500e-4
1.512,   1.556e-4
1.513,   1.615e-4
1.514,   1.675e-4
1.515,   1.736e-4
1.516,   1.801e-4
1.517,   1.866e-4
1.518,   1.934e-4
1.519,   2.003e-4
1.520,   2.075e-4
1.521,   2.149e-4
1.522,   2.226e-4
1.523,   2.305e-4
1.524,   2.386e-4
1.525,   2.469e-4
1.526,   2.554e-4
1.527,   2.643e-4
1.528,   2.733e-4
1.529,   2.827e-4
1.530,   2.923e-4
1.531,   3.021e-4
1.532,   3.124e-4
1.533,   3.228e-4
1.534,   3.337e-4
1.535,   3.448e-4
1.536,   3.561e-4
1.537,   3.679e-4
1.538,   3.800e-4
1.539,   3.926e-4
1.540,   4.053e-4
1.541,   4.187e-4
1.542,   4.324e-4
1.543,   4.466e-4
1.544,   4.613e-4
1.545,   4.765e-4
1.546,   4.921e-4
1.547,   5.082e-4
1.548,   5.249e-4
1.549,   5.424e-4
1.550,   5.604e-4
1.551,   5.789e-4
1.552,   5.980e-4
1.553,   6.178e-4
1.554,   6.384e-4
1.555,   6.593e-4
1.556,   6.811e-4
1.557,   7.037e-4
1.558,   7.272e-4
1.559,   7.513e-4
1.560,   7.763e-4
1.561,   8.025e-4
1.562,   8.293e-4
1.563,   8.567e-4
1.564,   8.858e-4
1.565,   9.158e-4
1.566,   9.466e-4
1.567,   9.789e-4
1.568,   1.014e-3
1.569,   1.049e-3
1.570,   1.085e-3
1.571,   1.122e-3
1.572,   1.160e-3
1.573,   1.200e-3
1.574,   1.241e-3
1.575,   1.283e-3
1.576,   1.326e-3
1.577,   1.371e-3
1.578,   1.418e-3
1.579,   1.466e-3
1.580,   1.517e-3
1.581,   1.567e-3
1.582,   1.620e-3
1.583,   1.674e-3
1.584,   1.735e-3
1.585,   1.796e-3
1.586,   1.861e-3
1.587,   1.925e-3
1.588,   1.988e-3
1.589,   2.052e-3
1.590,   2.120e-3
1.591,   2.187e-3
1.592,   2.257e-3
1.593,   2.328e-3
1.594,   2.411e-3
1.595,   2.492e-3
1.596,   2.566e-3
1.597,   2.642e-3
1.598,   2.721e-3
1.599,   2.802e-3
1.600,   2.883e-3
1.601,   2.966e-3
1.602,   3.087e-3
1.603,   3.180e-3
1.604,   3.259e-3
1.605,   3.341e-3
1.606,   3.429e-3
1.607,   3.522e-3
1.608,   3.631e-3
1.609,   3.743e-3
1.610,   3.836e-3
1.611,   3.914e-3
1.612,   3.994e-3
1.613,   4.092e-3
1.614,   4.216e-3
1.615,   4.348e-3
1.616,   4.438e-3