File: Experimental Records, Raw Data, and Supplementary Notes and Figures/batch4/final400/B4_VARIANCE_400_#7_Full(#15)-351mV.txt
Mar. 26, 2023   16:59:58
Linear Sweep Voltammetry
File: d:\current work\al_oer\electrochemical test data\batch 4\400\B4_VARIANCE_400_#7_Full(#15)-351mV.txt
Data Source:  Experiment
Instrument Model:  CHI660E
Header:
Note:

Init E (V) = 1.107

Final E (V) = 1.706

Scan Rate (V/s) = 0.010
Sample Interval (V) = 0.001
Quiet Time (sec) = 2
Sensitivity (A/V) = 0.001
Comp R (ohm) = 5.7

Results:

Channel 1:

Potential/V, Current/A
1.107,   -1.204e-6
1.108,   -3.853e-7
1.109,   -1.470e-7
1.110,   4.797e-8
1.111,   1.982e-7
1.112,   3.185e-7
1.113,   3.947e-7
1.114,   5.520e-7
1.115,   6.495e-7
1.116,   7.172e-7
1.117,   7.974e-7
1.118,   8.681e-7
1.119,   9.688e-7
1.120,   1.027e-6
1.121,   1.082e-6
1.122,   1.175e-6
1.123,   1.216e-6
1.124,   1.253e-6
1.125,   1.307e-6
1.126,   1.340e-6
1.127,   1.416e-6
1.128,   1.468e-6
1.129,   1.515e-6
1.130,   1.556e-6
1.131,   1.567e-6
1.132,   1.610e-6
1.133,   1.664e-6
1.134,   1.677e-6
1.135,   1.712e-6
1.136,   1.759e-6
1.137,   1.783e-6
1.138,   1.830e-6
1.139,   1.855e-6
1.140,   1.895e-6
1.141,   1.952e-6
1.142,   1.961e-6
1.143,   1.966e-6
1.144,   1.989e-6
1.145,   2.030e-6
1.146,   2.051e-6
1.147,   2.056e-6
1.148,   2.090e-6
1.149,   2.134e-6
1.150,   2.146e-6
1.151,   2.149e-6
1.152,   2.192e-6
1.153,   2.213e-6
1.154,   2.250e-6
1.155,   2.283e-6
1.156,   2.284e-6
1.157,   2.295e-6
1.158,   2.332e-6
1.159,   2.350e-6
1.160,   2.350e-6
1.161,   2.347e-6
1.162,   2.406e-6
1.163,   2.437e-6
1.164,   2.446e-6
1.165,   2.448e-6
1.166,   2.475e-6
1.167,   2.516e-6
1.168,   2.556e-6
1.169,   2.568e-6
1.170,   2.578e-6
1.171,   2.607e-6
1.172,   2.622e-6
1.173,   2.656e-6
1.174,   2.671e-6
1.175,   2.652e-6
1.176,   2.681e-6
1.177,   2.710e-6
1.178,   2.718e-6
1.179,   2.784e-6
1.180,   2.774e-6
1.181,   2.798e-6
1.182,   2.819e-6
1.183,   2.847e-6
1.184,   2.863e-6
1.185,   2.876e-6
1.186,   2.906e-6
1.187,   2.902e-6
1.188,   2.926e-6
1.189,   2.944e-6
1.190,   2.935e-6
1.191,   2.964e-6
1.192,   2.975e-6
1.193,   3.013e-6
1.194,   3.036e-6
1.195,   3.049e-6
1.196,   3.099e-6
1.197,   3.103e-6
1.198,   3.102e-6
1.199,   3.105e-6
1.200,   3.112e-6
1.201,   3.160e-6
1.202,   3.167e-6
1.203,   3.174e-6
1.204,   3.203e-6
1.205,   3.222e-6
1.206,   3.252e-6
1.207,   3.270e-6
1.208,   3.285e-6
1.209,   3.272e-6
1.210,   3.325e-6
1.211,   3.331e-6
1.212,   3.368e-6
1.213,   3.432e-6
1.214,   3.352e-6
1.215,   3.371e-6
1.216,   3.393e-6
1.217,   3.421e-6
1.218,   3.436e-6
1.219,   3.415e-6
1.220,   3.458e-6
1.221,   3.488e-6
1.222,   3.480e-6
1.223,   3.493e-6
1.224,   3.493e-6
1.225,   3.501e-6
1.226,   3.543e-6
1.227,   3.543e-6
1.228,   3.563e-6
1.229,   3.575e-6
1.230,   3.579e-6
1.231,   3.600e-6
1.232,   3.631e-6
1.233,   3.618e-6
1.234,   3.611e-6
1.235,   3.659e-6
1.236,   3.661e-6
1.237,   3.678e-6
1.238,   3.660e-6
1.239,   3.680e-6
1.240,   3.704e-6
1.241,   3.715e-6
1.242,   3.742e-6
1.243,   3.727e-6
1.244,   3.767e-6
1.245,   3.760e-6
1.246,   3.771e-6
1.247,   3.790e-6
1.248,   3.774e-6
1.249,   3.811e-6
1.250,   3.821e-6
1.251,   3.819e-6
1.252,   3.832e-6
1.253,   3.852e-6
1.254,   3.869e-6
1.255,   3.837e-6
1.256,   3.863e-6
1.257,   3.864e-6
1.258,   3.911e-6
1.259,   3.880e-6
1.260,   3.922e-6
1.261,   3.952e-6
1.262,   3.946e-6
1.263,   3.945e-6
1.264,   3.954e-6
1.265,   3.937e-6
1.266,   3.968e-6
1.267,   3.981e-6
1.268,   4.002e-6
1.269,   4.019e-6
1.270,   4.027e-6
1.271,   4.021e-6
1.272,   4.050e-6
1.273,   4.036e-6
1.274,   4.039e-6
1.275,   4.043e-6
1.276,   4.067e-6
1.277,   4.066e-6
1.278,   4.098e-6
1.279,   4.108e-6
1.280,   4.099e-6
1.281,   4.102e-6
1.282,   4.108e-6
1.283,   4.121e-6
1.284,   4.128e-6
1.285,   4.179e-6
1.286,   4.141e-6
1.287,   4.174e-6
1.288,   4.187e-6
1.289,   4.195e-6
1.290,   4.236e-6
1.291,   4.242e-6
1.292,   4.221e-6
1.293,   4.231e-6
1.294,   4.253e-6
1.295,   4.276e-6
1.296,   4.287e-6
1.297,   4.278e-6
1.298,   4.326e-6
1.299,   4.307e-6
1.300,   4.352e-6
1.301,   4.354e-6
1.302,   4.335e-6
1.303,   4.346e-6
1.304,   4.361e-6
1.305,   4.383e-6
1.306,   4.391e-6
1.307,   4.410e-6
1.308,   4.426e-6
1.309,   4.442e-6
1.310,   4.459e-6
1.311,   4.460e-6
1.312,   4.496e-6
1.313,   4.509e-6
1.314,   4.542e-6
1.315,   4.532e-6
1.316,   4.572e-6
1.317,   4.589e-6
1.318,   4.578e-6
1.319,   4.630e-6
1.320,   4.628e-6
1.321,   4.644e-6
1.322,   4.650e-6
1.323,   4.676e-6
1.324,   4.698e-6
1.325,   4.700e-6
1.326,   4.720e-6
1.327,   4.756e-6
1.328,   4.745e-6
1.329,   4.787e-6
1.330,   4.785e-6
1.331,   4.814e-6
1.332,   4.860e-6
1.333,   4.864e-6
1.334,   4.856e-6
1.335,   4.872e-6
1.336,   4.919e-6
1.337,   4.931e-6
1.338,   4.936e-6
1.339,   4.956e-6
1.340,   4.984e-6
1.341,   5.014e-6
1.342,   5.036e-6
1.343,   5.051e-6
1.344,   5.063e-6
1.345,   5.108e-6
1.346,   5.096e-6
1.347,   5.114e-6
1.348,   5.150e-6
1.349,   5.163e-6
1.350,   5.125e-6
1.351,   5.198e-6
1.352,   5.205e-6
1.353,   5.252e-6
1.354,   5.276e-6
1.355,   5.296e-6
1.356,   5.306e-6
1.357,   5.317e-6
1.358,   5.347e-6
1.359,   5.366e-6
1.360,   5.422e-6
1.361,   5.428e-6
1.362,   5.475e-6
1.363,   5.465e-6
1.364,   5.487e-6
1.365,   5.556e-6
1.366,   5.525e-6
1.367,   5.610e-6
1.368,   5.618e-6
1.369,   5.647e-6
1.370,   5.680e-6
1.371,   5.688e-6
1.372,   5.718e-6
1.373,   5.732e-6
1.374,   5.767e-6
1.375,   5.814e-6
1.376,   5.850e-6
1.377,   5.854e-6
1.378,   5.894e-6
1.379,   5.930e-6
1.380,   5.978e-6
1.381,   6.001e-6
1.382,   6.019e-6
1.383,   6.108e-6
1.384,   6.152e-6
1.385,   6.149e-6
1.386,   6.259e-6
1.387,   6.270e-6
1.388,   6.300e-6
1.389,   6.364e-6
1.390,   6.393e-6
1.391,   6.487e-6
1.392,   6.535e-6
1.393,   6.565e-6
1.394,   6.692e-6
1.395,   6.717e-6
1.396,   6.812e-6
1.397,   6.892e-6
1.398,   6.929e-6
1.399,   6.989e-6
1.400,   7.093e-6
1.401,   7.183e-6
1.402,   7.235e-6
1.403,   7.353e-6
1.404,   7.489e-6
1.405,   7.565e-6
1.406,   7.653e-6
1.407,   7.786e-6
1.408,   7.886e-6
1.409,   8.039e-6
1.410,   8.175e-6
1.411,   8.309e-6
1.412,   8.467e-6
1.413,   8.659e-6
1.414,   8.757e-6
1.415,   9.000e-6
1.416,   9.187e-6
1.417,   9.394e-6
1.418,   9.607e-6
1.419,   9.787e-6
1.420,   9.992e-6
1.421,   1.030e-5
1.422,   1.054e-5
1.423,   1.080e-5
1.424,   1.107e-5
1.425,   1.139e-5
1.426,   1.179e-5
1.427,   1.214e-5
1.428,   1.253e-5
1.429,   1.286e-5
1.430,   1.317e-5
1.431,   1.359e-5
1.432,   1.406e-5
1.433,   1.450e-5
1.434,   1.498e-5
1.435,   1.552e-5
1.436,   1.604e-5
1.437,   1.667e-5
1.438,   1.725e-5
1.439,   1.788e-5
1.440,   1.855e-5
1.441,   1.920e-5
1.442,   1.995e-5
1.443,   2.076e-5
1.444,   2.156e-5
1.445,   2.247e-5
1.446,   2.338e-5
1.447,   2.438e-5
1.448,   2.558e-5
1.449,   2.654e-5
1.450,   2.755e-5
1.451,   2.871e-5
1.452,   3.005e-5
1.453,   3.145e-5
1.454,   3.276e-5
1.455,   3.424e-5
1.456,   3.585e-5
1.457,   3.744e-5
1.458,   3.903e-5
1.459,   4.083e-5
1.460,   4.282e-5
1.461,   4.486e-5
1.462,   4.688e-5
1.463,   4.908e-5
1.464,   5.141e-5
1.465,   5.376e-5
1.466,   5.629e-5
1.467,   5.887e-5
1.468,   6.173e-5
1.469,   6.471e-5
1.470,   6.753e-5
1.471,   7.070e-5
1.472,   7.419e-5
1.473,   7.780e-5
1.474,   8.138e-5
1.475,   8.550e-5
1.476,   8.974e-5
1.477,   9.391e-5
1.478,   9.813e-5
1.479,   1.027e-4
1.480,   1.075e-4
1.481,   1.124e-4
1.482,   1.175e-4
1.483,   1.229e-4
1.484,   1.288e-4
1.485,   1.348e-4
1.486,   1.412e-4
1.487,   1.476e-4
1.488,   1.544e-4
1.489,   1.615e-4
1.490,   1.688e-4
1.491,   1.762e-4
1.492,   1.838e-4
1.493,   1.915e-4
1.494,   1.998e-4
1.495,   2.088e-4
1.496,   2.177e-4
1.497,   2.265e-4
1.498,   2.361e-4
1.499,   2.462e-4
1.500,   2.563e-4
1.501,   2.672e-4
1.502,   2.781e-4
1.503,   2.897e-4
1.504,   3.013e-4
1.505,   3.122e-4
1.506,   3.243e-4
1.507,   3.365e-4
1.508,   3.498e-4
1.509,   3.641e-4
1.510,   3.780e-4
1.511,   3.922e-4
1.512,   4.067e-4
1.513,   4.218e-4
1.514,   4.359e-4
1.515,   4.520e-4
1.516,   4.675e-4
1.517,   4.830e-4
1.518,   4.985e-4
1.519,   5.145e-4
1.520,   5.304e-4
1.521,   5.474e-4
1.522,   5.660e-4
1.523,   5.832e-4
1.524,   5.998e-4
1.525,   6.175e-4
1.526,   6.355e-4
1.527,   6.519e-4
1.528,   6.709e-4
1.529,   6.895e-4
1.530,   7.084e-4
1.531,   7.287e-4
1.532,   7.479e-4
1.533,   7.654e-4
1.534,   7.857e-4
1.535,   8.071e-4
1.536,   8.271e-4
1.537,   8.438e-4
1.538,   8.632e-4
1.539,   8.826e-4
1.540,   9.039e-4
1.541,   9.243e-4
1.542,   9.448e-4
1.543,   9.645e-4
1.544,   9.849e-4
1.545,   1.006e-3
1.546,   1.024e-3
1.547,   1.043e-3
1.548,   1.063e-3
1.549,   1.084e-3
1.550,   1.105e-3
1.551,   1.129e-3
1.552,   1.155e-3
1.553,   1.178e-3
1.554,   1.203e-3
1.555,   1.225e-3
1.556,   1.248e-3
1.557,   1.272e-3
1.558,   1.297e-3
1.559,   1.321e-3
1.560,   1.342e-3
1.561,   1.367e-3
1.562,   1.394e-3
1.563,   1.422e-3
1.564,   1.451e-3
1.565,   1.478e-3
1.566,   1.504e-3
1.567,   1.530e-3
1.568,   1.557e-3
1.569,   1.585e-3
1.570,   1.612e-3
1.571,   1.640e-3
1.572,   1.668e-3
1.573,   1.694e-3
1.574,   1.721e-3
1.575,   1.758e-3
1.576,   1.792e-3
1.577,   1.824e-3
1.578,   1.856e-3
1.579,   1.883e-3
1.580,   1.911e-3
1.581,   1.944e-3
1.582,   1.972e-3
1.583,   2.002e-3
1.584,   2.037e-3
1.585,   2.069e-3
1.586,   2.109e-3
1.587,   2.151e-3
1.588,   2.178e-3
1.589,   2.212e-3
1.590,   2.246e-3
1.591,   2.280e-3
1.592,   2.319e-3
1.593,   2.357e-3
1.594,   2.390e-3
1.595,   2.438e-3
1.596,   2.532e-3
1.597,   2.562e-3
1.598,   2.623e-3
1.599,   2.737e-3
1.600,   2.795e-3
1.601,   2.852e-3
1.602,   2.872e-3
1.603,   2.888e-3
1.604,   2.916e-3
1.605,   2.956e-3
1.606,   2.997e-3
1.607,   3.028e-3
1.608,   3.052e-3
1.609,   3.089e-3
1.610,   3.114e-3
1.611,   3.174e-3
1.612,   3.240e-3
1.613,   3.277e-3
1.614,   3.302e-3
1.615,   3.344e-3
1.616,   3.368e-3
1.617,   3.392e-3
1.618,   3.426e-3
1.619,   3.481e-3
1.620,   3.505e-3
1.621,   3.579e-3
1.622,   3.622e-3
1.623,   3.646e-3
1.624,   3.652e-3
1.625,   3.675e-3
1.626,   3.691e-3
1.627,   3.711e-3
1.628,   3.784e-3
1.629,   3.807e-3
1.630,   3.821e-3
1.631,   3.870e-3
1.632,   3.890e-3
1.633,   3.936e-3
1.634,   3.950e-3
1.635,   3.929e-3
1.636,   3.942e-3
1.637,   3.964e-3
1.638,   3.979e-3
1.639,   4.024e-3
1.640,   4.048e-3
1.641,   4.042e-3
1.642,   4.049e-3
1.643,   4.057e-3
1.644,   4.084e-3
1.645,   4.119e-3
1.646,   4.153e-3
1.647,   4.189e-3
1.648,   4.198e-3
1.649,   4.185e-3
1.650,   4.226e-3
1.651,   4.322e-3
1.652,   4.412e-3
1.653,   4.639e-3
1.654,   4.687e-3
1.655,   4.631e-3
1.656,   4.591e-3
1.657,   4.566e-3
1.658,   4.551e-3
1.659,   4.576e-3
1.660,   4.594e-3
1.661,   4.567e-3
1.662,   4.571e-3
1.663,   4.556e-3
1.664,   4.609e-3
1.665,   4.615e-3
1.666,   4.604e-3
1.667,   4.589e-3
1.668,   4.581e-3
1.669,   4.550e-3
1.670,   4.566e-3
1.671,   4.582e-3
1.672,   4.623e-3
1.673,   4.702e-3
1.674,   4.655e-3
1.675,   4.650e-3
1.676,   4.647e-3
1.677,   4.677e-3
1.678,   4.804e-3
1.679,   5.104e-3
1.680,   5.149e-3
1.681,   5.129e-3
1.682,   5.085e-3
1.683,   5.014e-3
1.684,   4.984e-3
1.685,   5.051e-3
1.686,   5.056e-3
1.687,   5.022e-3
1.688,   4.983e-3
1.689,   4.977e-3
1.690,   4.970e-3
1.691,   5.051e-3
1.692,   5.112e-3
1.693,   5.072e-3
1.694,   5.015e-3
1.695,   5.007e-3
1.696,   5.016e-3
1.697,   5.041e-3
1.698,   5.046e-3
1.699,   5.052e-3
1.700,   5.072e-3
1.701,   5.080e-3
1.702,   5.044e-3
1.703,   5.016e-3
1.704,   5.020e-3
1.705,   4.988e-3
1.706,   4.968e-3