File: Experimental Records, Raw Data, and Supplementary Notes and Figures/batch4/final400/B4_VARIANCE_400_#2_Full(#10)-362mV.txt
Mar. 27, 2023   15:12:38
Linear Sweep Voltammetry
File: d:\current work\al_oer\electrochemical test data\batch 4\400\B4_VARIANCE_400_#2_Full(#10)-362mV.txt
Data Source:  Experiment
Instrument Model:  CHI660E
Header:
Note:

Init E (V) = 1.099

Final E (V) = 1.698

Scan Rate (V/s) = 0.010
Sample Interval (V) = 0.001
Quiet Time (sec) = 2
Sensitivity (A/V) = 0.001
Comp R (ohm) = 5.3

Results:

Channel 1:
Ep = 1.449V
ip = 2.456e-3A
Ah = 4.678e-2C

Potential/V, Current/A
1.099,   1.226e-5
1.100,   1.190e-5
1.101,   1.121e-5
1.102,   1.063e-5
1.103,   1.009e-5
1.104,   9.616e-6
1.105,   9.189e-6
1.106,   8.784e-6
1.107,   8.417e-6
1.108,   8.123e-6
1.109,   7.878e-6
1.110,   7.581e-6
1.111,   7.322e-6
1.112,   7.094e-6
1.113,   6.881e-6
1.114,   6.694e-6
1.115,   6.496e-6
1.116,   6.346e-6
1.117,   6.194e-6
1.118,   6.005e-6
1.119,   5.871e-6
1.120,   5.747e-6
1.121,   5.624e-6
1.122,   5.515e-6
1.123,   5.396e-6
1.124,   5.293e-6
1.125,   5.216e-6
1.126,   5.138e-6
1.127,   5.040e-6
1.128,   4.967e-6
1.129,   4.885e-6
1.130,   4.837e-6
1.131,   4.754e-6
1.132,   4.714e-6
1.133,   4.647e-6
1.134,   4.592e-6
1.135,   4.545e-6
1.136,   4.484e-6
1.137,   4.442e-6
1.138,   4.388e-6
1.139,   4.355e-6
1.140,   4.327e-6
1.141,   4.274e-6
1.142,   4.228e-6
1.143,   4.210e-6
1.144,   4.168e-6
1.145,   4.138e-6
1.146,   4.112e-6
1.147,   4.087e-6
1.148,   4.062e-6
1.149,   4.032e-6
1.150,   4.000e-6
1.151,   3.973e-6
1.152,   3.951e-6
1.153,   3.936e-6
1.154,   3.936e-6
1.155,   3.910e-6
1.156,   3.874e-6
1.157,   3.882e-6
1.158,   3.856e-6
1.159,   3.826e-6
1.160,   3.848e-6
1.161,   3.826e-6
1.162,   3.804e-6
1.163,   3.786e-6
1.164,   3.796e-6
1.165,   3.782e-6
1.166,   3.751e-6
1.167,   3.762e-6
1.168,   3.749e-6
1.169,   3.735e-6
1.170,   3.732e-6
1.171,   3.734e-6
1.172,   3.711e-6
1.173,   3.739e-6
1.174,   3.723e-6
1.175,   3.706e-6
1.176,   3.697e-6
1.177,   3.697e-6
1.178,   3.683e-6
1.179,   3.678e-6
1.180,   3.682e-6
1.181,   3.687e-6
1.182,   3.671e-6
1.183,   3.679e-6
1.184,   3.680e-6
1.185,   3.678e-6
1.186,   3.676e-6
1.187,   3.668e-6
1.188,   3.676e-6
1.189,   3.658e-6
1.190,   3.664e-6
1.191,   3.670e-6
1.192,   3.675e-6
1.193,   3.668e-6
1.194,   3.674e-6
1.195,   3.691e-6
1.196,   3.686e-6
1.197,   3.676e-6
1.198,   3.664e-6
1.199,   3.665e-6
1.200,   3.685e-6
1.201,   3.676e-6
1.202,   3.667e-6
1.203,   3.679e-6
1.204,   3.700e-6
1.205,   3.674e-6
1.206,   3.693e-6
1.207,   3.701e-6
1.208,   3.707e-6
1.209,   3.712e-6
1.210,   3.708e-6
1.211,   3.700e-6
1.212,   3.716e-6
1.213,   3.746e-6
1.214,   3.714e-6
1.215,   3.739e-6
1.216,   3.739e-6
1.217,   3.734e-6
1.218,   3.738e-6
1.219,   3.739e-6
1.220,   3.729e-6
1.221,   3.753e-6
1.222,   3.772e-6
1.223,   3.776e-6
1.224,   3.770e-6
1.225,   3.762e-6
1.226,   3.784e-6
1.227,   3.769e-6
1.228,   3.792e-6
1.229,   3.803e-6
1.230,   3.800e-6
1.231,   3.819e-6
1.232,   3.830e-6
1.233,   3.805e-6
1.234,   3.822e-6
1.235,   3.826e-6
1.236,   3.835e-6
1.237,   3.849e-6
1.238,   3.839e-6
1.239,   3.847e-6
1.240,   3.868e-6
1.241,   3.862e-6
1.242,   3.875e-6
1.243,   3.876e-6
1.244,   3.896e-6
1.245,   3.918e-6
1.246,   3.911e-6
1.247,   3.918e-6
1.248,   3.929e-6
1.249,   3.907e-6
1.250,   3.933e-6
1.251,   3.940e-6
1.252,   3.939e-6
1.253,   3.949e-6
1.254,   3.938e-6
1.255,   3.966e-6
1.256,   3.977e-6
1.257,   3.980e-6
1.258,   3.990e-6
1.259,   3.978e-6
1.260,   4.028e-6
1.261,   4.026e-6
1.262,   4.022e-6
1.263,   4.043e-6
1.264,   4.056e-6
1.265,   4.066e-6
1.266,   4.083e-6
1.267,   4.085e-6
1.268,   4.087e-6
1.269,   4.088e-6
1.270,   4.084e-6
1.271,   4.094e-6
1.272,   4.111e-6
1.273,   4.133e-6
1.274,   4.160e-6
1.275,   4.150e-6
1.276,   4.172e-6
1.277,   4.187e-6
1.278,   4.193e-6
1.279,   4.205e-6
1.280,   4.202e-6
1.281,   4.216e-6
1.282,   4.229e-6
1.283,   4.234e-6
1.284,   4.239e-6
1.285,   4.276e-6
1.286,   4.301e-6
1.287,   4.320e-6
1.288,   4.313e-6
1.289,   4.315e-6
1.290,   4.338e-6
1.291,   4.350e-6
1.292,   4.354e-6
1.293,   4.385e-6
1.294,   4.363e-6
1.295,   4.416e-6
1.296,   4.423e-6
1.297,   4.425e-6
1.298,   4.451e-6
1.299,   4.470e-6
1.300,   4.480e-6
1.301,   4.496e-6
1.302,   4.507e-6
1.303,   4.517e-6
1.304,   4.541e-6
1.305,   4.576e-6
1.306,   4.593e-6
1.307,   4.600e-6
1.308,   4.628e-6
1.309,   4.649e-6
1.310,   4.641e-6
1.311,   4.652e-6
1.312,   4.691e-6
1.313,   4.706e-6
1.314,   4.724e-6
1.315,   4.718e-6
1.316,   4.749e-6
1.317,   4.778e-6
1.318,   4.805e-6
1.319,   4.812e-6
1.320,   4.815e-6
1.321,   4.868e-6
1.322,   4.874e-6
1.323,   4.896e-6
1.324,   4.908e-6
1.325,   4.955e-6
1.326,   4.960e-6
1.327,   4.974e-6
1.328,   5.003e-6
1.329,   5.025e-6
1.330,   5.044e-6
1.331,   5.074e-6
1.332,   5.109e-6
1.333,   5.107e-6
1.334,   5.142e-6
1.335,   5.180e-6
1.336,   5.184e-6
1.337,   5.206e-6
1.338,   5.243e-6
1.339,   5.250e-6
1.340,   5.287e-6
1.341,   5.298e-6
1.342,   5.328e-6
1.343,   5.378e-6
1.344,   5.376e-6
1.345,   5.405e-6
1.346,   5.443e-6
1.347,   5.474e-6
1.348,   5.493e-6
1.349,   5.518e-6
1.350,   5.556e-6
1.351,   5.586e-6
1.352,   5.630e-6
1.353,   5.643e-6
1.354,   5.678e-6
1.355,   5.707e-6
1.356,   5.738e-6
1.357,   5.767e-6
1.358,   5.810e-6
1.359,   5.821e-6
1.360,   5.896e-6
1.361,   5.928e-6
1.362,   5.964e-6
1.363,   5.983e-6
1.364,   6.040e-6
1.365,   6.085e-6
1.366,   6.125e-6
1.367,   6.181e-6
1.368,   6.222e-6
1.369,   6.257e-6
1.370,   6.320e-6
1.371,   6.377e-6
1.372,   6.413e-6
1.373,   6.470e-6
1.374,   6.518e-6
1.375,   6.589e-6
1.376,   6.646e-6
1.377,   6.709e-6
1.378,   6.775e-6
1.379,   6.837e-6
1.380,   6.911e-6
1.381,   6.996e-6
1.382,   7.069e-6
1.383,   7.150e-6
1.384,   7.246e-6
1.385,   7.338e-6
1.386,   7.410e-6
1.387,   7.516e-6
1.388,   7.616e-6
1.389,   7.735e-6
1.390,   7.851e-6
1.391,   7.964e-6
1.392,   8.125e-6
1.393,   8.261e-6
1.394,   8.398e-6
1.395,   8.548e-6
1.396,   8.705e-6
1.397,   8.877e-6
1.398,   9.074e-6
1.399,   9.277e-6
1.400,   9.477e-6
1.401,   9.690e-6
1.402,   9.950e-6
1.403,   1.019e-5
1.404,   1.045e-5
1.405,   1.075e-5
1.406,   1.103e-5
1.407,   1.134e-5
1.408,   1.169e-5
1.409,   1.205e-5
1.410,   1.241e-5
1.411,   1.281e-5
1.412,   1.321e-5
1.413,   1.366e-5
1.414,   1.411e-5
1.415,   1.459e-5
1.416,   1.512e-5
1.417,   1.564e-5
1.418,   1.623e-5
1.419,   1.684e-5
1.420,   1.745e-5
1.421,   1.813e-5
1.422,   1.885e-5
1.423,   1.959e-5
1.424,   2.042e-5
1.425,   2.124e-5
1.426,   2.213e-5
1.427,   2.304e-5
1.428,   2.404e-5
1.429,   2.506e-5
1.430,   2.613e-5
1.431,   2.728e-5
1.432,   2.847e-5
1.433,   2.971e-5
1.434,   3.105e-5
1.435,   3.245e-5
1.436,   3.392e-5
1.437,   3.548e-5
1.438,   3.704e-5
1.439,   3.864e-5
1.440,   4.041e-5
1.441,   4.227e-5
1.442,   4.423e-5
1.443,   4.627e-5
1.444,   4.844e-5
1.445,   5.069e-5
1.446,   5.304e-5
1.447,   5.554e-5
1.448,   5.811e-5
1.449,   6.085e-5
1.450,   6.367e-5
1.451,   6.667e-5
1.452,   6.979e-5
1.453,   7.308e-5
1.454,   7.656e-5
1.455,   8.017e-5
1.456,   8.388e-5
1.457,   8.777e-5
1.458,   9.183e-5
1.459,   9.604e-5
1.460,   1.004e-4
1.461,   1.050e-4
1.462,   1.097e-4
1.463,   1.147e-4
1.464,   1.198e-4
1.465,   1.252e-4
1.466,   1.307e-4
1.467,   1.364e-4
1.468,   1.423e-4
1.469,   1.484e-4
1.470,   1.547e-4
1.471,   1.613e-4
1.472,   1.680e-4
1.473,   1.749e-4
1.474,   1.820e-4
1.475,   1.893e-4
1.476,   1.968e-4
1.477,   2.044e-4
1.478,   2.124e-4
1.479,   2.205e-4
1.480,   2.288e-4
1.481,   2.374e-4
1.482,   2.462e-4
1.483,   2.551e-4
1.484,   2.643e-4
1.485,   2.736e-4
1.486,   2.832e-4
1.487,   2.929e-4
1.488,   3.027e-4
1.489,   3.127e-4
1.490,   3.230e-4
1.491,   3.335e-4
1.492,   3.442e-4
1.493,   3.549e-4
1.494,   3.660e-4
1.495,   3.771e-4
1.496,   3.886e-4
1.497,   4.001e-4
1.498,   4.118e-4
1.499,   4.237e-4
1.500,   4.358e-4
1.501,   4.479e-4
1.502,   4.603e-4
1.503,   4.727e-4
1.504,   4.853e-4
1.505,   4.981e-4
1.506,   5.109e-4
1.507,   5.239e-4
1.508,   5.369e-4
1.509,   5.501e-4
1.510,   5.635e-4
1.511,   5.772e-4
1.512,   5.909e-4
1.513,   6.047e-4
1.514,   6.186e-4
1.515,   6.328e-4
1.516,   6.470e-4
1.517,   6.614e-4
1.518,   6.758e-4
1.519,   6.904e-4
1.520,   7.050e-4
1.521,   7.198e-4
1.522,   7.346e-4
1.523,   7.492e-4
1.524,   7.643e-4
1.525,   7.791e-4
1.526,   7.944e-4
1.527,   8.099e-4
1.528,   8.250e-4
1.529,   8.407e-4
1.530,   8.567e-4
1.531,   8.723e-4
1.532,   8.880e-4
1.533,   9.039e-4
1.534,   9.199e-4
1.535,   9.359e-4
1.536,   9.520e-4
1.537,   9.684e-4
1.538,   9.846e-4
1.539,   1.001e-3
1.540,   1.017e-3
1.541,   1.034e-3
1.542,   1.051e-3
1.543,   1.067e-3
1.544,   1.084e-3
1.545,   1.102e-3
1.546,   1.119e-3
1.547,   1.136e-3
1.548,   1.153e-3
1.549,   1.171e-3
1.550,   1.188e-3
1.551,   1.206e-3
1.552,   1.223e-3
1.553,   1.241e-3
1.554,   1.259e-3
1.555,   1.277e-3
1.556,   1.295e-3
1.557,   1.313e-3
1.558,   1.332e-3
1.559,   1.350e-3
1.560,   1.369e-3
1.561,   1.387e-3
1.562,   1.406e-3
1.563,   1.424e-3
1.564,   1.442e-3
1.565,   1.460e-3
1.566,   1.478e-3
1.567,   1.497e-3
1.568,   1.515e-3
1.569,   1.533e-3
1.570,   1.552e-3
1.571,   1.571e-3
1.572,   1.589e-3
1.573,   1.608e-3
1.574,   1.626e-3
1.575,   1.645e-3
1.576,   1.663e-3
1.577,   1.681e-3
1.578,   1.700e-3
1.579,   1.718e-3
1.580,   1.738e-3
1.581,   1.756e-3
1.582,   1.774e-3
1.583,   1.792e-3
1.584,   1.811e-3
1.585,   1.830e-3
1.586,   1.849e-3
1.587,   1.866e-3
1.588,   1.884e-3
1.589,   1.900e-3
1.590,   1.917e-3
1.591,   1.935e-3
1.592,   1.952e-3
1.593,   1.969e-3
1.594,   1.986e-3
1.595,   2.003e-3
1.596,   2.020e-3
1.597,   2.035e-3
1.598,   2.051e-3
1.599,   2.067e-3
1.600,   2.081e-3
1.601,   2.096e-3
1.602,   2.111e-3
1.603,   2.127e-3
1.604,   2.140e-3
1.605,   2.154e-3
1.606,   2.168e-3
1.607,   2.183e-3
1.608,   2.202e-3
1.609,   2.215e-3
1.610,   2.227e-3
1.611,   2.240e-3
1.612,   2.253e-3
1.613,   2.264e-3
1.614,   2.276e-3
1.615,   2.287e-3
1.616,   2.298e-3
1.617,   2.309e-3
1.618,   2.321e-3
1.619,   2.332e-3
1.620,   2.342e-3
1.621,   2.352e-3
1.622,   2.362e-3
1.623,   2.372e-3
1.624,   2.381e-3
1.625,   2.389e-3
1.626,   2.399e-3
1.627,   2.407e-3
1.628,   2.412e-3
1.629,   2.418e-3
1.630,   2.426e-3
1.631,   2.433e-3
1.632,   2.438e-3
1.633,   2.442e-3
1.634,   2.447e-3
1.635,   2.453e-3
1.636,   2.458e-3
1.637,   2.462e-3
1.638,   2.465e-3
1.639,   2.470e-3
1.640,   2.478e-3
1.641,   2.483e-3
1.642,   2.485e-3
1.643,   2.487e-3
1.644,   2.489e-3
1.645,   2.497e-3
1.646,   2.532e-3
1.647,   2.536e-3
1.648,   2.534e-3
1.649,   2.533e-3
1.650,   2.529e-3
1.651,   2.527e-3
1.652,   2.525e-3
1.653,   2.523e-3
1.654,   2.520e-3
1.655,   2.517e-3
1.656,   2.514e-3
1.657,   2.511e-3
1.658,   2.510e-3
1.659,   2.507e-3
1.660,   2.502e-3
1.661,   2.499e-3
1.662,   2.494e-3
1.663,   2.488e-3
1.664,   2.483e-3
1.665,   2.479e-3
1.666,   2.474e-3
1.667,   2.470e-3
1.668,   2.465e-3
1.669,   2.458e-3
1.670,   2.452e-3
1.671,   2.445e-3
1.672,   2.438e-3
1.673,   2.433e-3
1.674,   2.427e-3
1.675,   2.420e-3
1.676,   2.412e-3
1.677,   2.405e-3
1.678,   2.396e-3
1.679,   2.388e-3
1.680,   2.381e-3
1.681,   2.373e-3
1.682,   2.366e-3
1.683,   2.357e-3
1.684,   2.348e-3
1.685,   2.339e-3
1.686,   2.330e-3
1.687,   2.321e-3
1.688,   2.312e-3
1.689,   2.303e-3
1.690,   2.296e-3
1.691,   2.287e-3
1.692,   2.279e-3
1.693,   2.268e-3
1.694,   2.259e-3
1.695,   2.249e-3
1.696,   2.240e-3
1.697,   2.230e-3
1.698,   2.221e-3