File: Experimental Records, Raw Data, and Supplementary Notes and Figures/batch4/final400/B4_VARIANCE_400_#8_Full(#16)-415mV.txt
Mar. 24, 2023   16:14:21
Linear Sweep Voltammetry
File: d:\current work\al_oer\electrochemical test data\batch 4\400\B4_VARIANCE_400_#8_Full(#16)-415mV.txt
Data Source:  Experiment
Instrument Model:  CHI660E
Header:
Note:

Init E (V) = 1.073

Final E (V) = 1.672

Scan Rate (V/s) = 0.010
Sample Interval (V) = 0.001
Quiet Time (sec) = 2
Sensitivity (A/V) = 0.001
Comp R (ohm) = 5.4

Results:

Channel 1:

Potential/V, Current/A
1.073,   9.129e-6
1.074,   8.910e-6
1.075,   8.533e-6
1.076,   8.140e-6
1.077,   7.819e-6
1.078,   7.499e-6
1.079,   7.227e-6
1.080,   6.958e-6
1.081,   6.728e-6
1.082,   6.523e-6
1.083,   6.327e-6
1.084,   6.145e-6
1.085,   5.983e-6
1.086,   5.830e-6
1.087,   5.702e-6
1.088,   5.556e-6
1.089,   5.445e-6
1.090,   5.339e-6
1.091,   5.235e-6
1.092,   5.145e-6
1.093,   5.052e-6
1.094,   4.960e-6
1.095,   4.897e-6
1.096,   4.822e-6
1.097,   4.734e-6
1.098,   4.672e-6
1.099,   4.621e-6
1.100,   4.556e-6
1.101,   4.493e-6
1.102,   4.428e-6
1.103,   4.359e-6
1.104,   4.342e-6
1.105,   4.293e-6
1.106,   4.242e-6
1.107,   4.229e-6
1.108,   4.157e-6
1.109,   4.091e-6
1.110,   4.051e-6
1.111,   4.027e-6
1.112,   4.012e-6
1.113,   3.949e-6
1.114,   3.909e-6
1.115,   3.866e-6
1.116,   3.859e-6
1.117,   3.855e-6
1.118,   3.806e-6
1.119,   3.796e-6
1.120,   3.752e-6
1.121,   3.712e-6
1.122,   3.718e-6
1.123,   3.687e-6
1.124,   3.660e-6
1.125,   3.640e-6
1.126,   3.654e-6
1.127,   3.608e-6
1.128,   3.587e-6
1.129,   3.580e-6
1.130,   3.561e-6
1.131,   3.543e-6
1.132,   3.536e-6
1.133,   3.506e-6
1.134,   3.510e-6
1.135,   3.484e-6
1.136,   3.473e-6
1.137,   3.453e-6
1.138,   3.447e-6
1.139,   3.444e-6
1.140,   3.416e-6
1.141,   3.415e-6
1.142,   3.394e-6
1.143,   3.374e-6
1.144,   3.391e-6
1.145,   3.375e-6
1.146,   3.373e-6
1.147,   3.377e-6
1.148,   3.351e-6
1.149,   3.339e-6
1.150,   3.329e-6
1.151,   3.314e-6
1.152,   3.310e-6
1.153,   3.301e-6
1.154,   3.314e-6
1.155,   3.312e-6
1.156,   3.303e-6
1.157,   3.300e-6
1.158,   3.307e-6
1.159,   3.311e-6
1.160,   3.277e-6
1.161,   3.252e-6
1.162,   3.250e-6
1.163,   3.266e-6
1.164,   3.251e-6
1.165,   3.269e-6
1.166,   3.252e-6
1.167,   3.250e-6
1.168,   3.247e-6
1.169,   3.245e-6
1.170,   3.255e-6
1.171,   3.255e-6
1.172,   3.219e-6
1.173,   3.223e-6
1.174,   3.220e-6
1.175,   3.253e-6
1.176,   3.226e-6
1.177,   3.212e-6
1.178,   3.238e-6
1.179,   3.198e-6
1.180,   3.204e-6
1.181,   3.199e-6
1.182,   3.226e-6
1.183,   3.222e-6
1.184,   3.209e-6
1.185,   3.200e-6
1.186,   3.208e-6
1.187,   3.216e-6
1.188,   3.201e-6
1.189,   3.183e-6
1.190,   3.207e-6
1.191,   3.182e-6
1.192,   3.186e-6
1.193,   3.160e-6
1.194,   3.171e-6
1.195,   3.219e-6
1.196,   3.181e-6
1.197,   3.184e-6
1.198,   3.197e-6
1.199,   3.194e-6
1.200,   3.213e-6
1.201,   3.178e-6
1.202,   3.193e-6
1.203,   3.185e-6
1.204,   3.152e-6
1.205,   3.201e-6
1.206,   3.195e-6
1.207,   3.161e-6
1.208,   3.200e-6
1.209,   3.219e-6
1.210,   3.188e-6
1.211,   3.171e-6
1.212,   3.171e-6
1.213,   3.191e-6
1.214,   3.162e-6
1.215,   3.177e-6
1.216,   3.163e-6
1.217,   3.160e-6
1.218,   3.186e-6
1.219,   3.159e-6
1.220,   3.193e-6
1.221,   3.193e-6
1.222,   3.168e-6
1.223,   3.162e-6
1.224,   3.177e-6
1.225,   3.206e-6
1.226,   3.152e-6
1.227,   3.160e-6
1.228,   3.149e-6
1.229,   3.160e-6
1.230,   3.174e-6
1.231,   3.165e-6
1.232,   3.163e-6
1.233,   3.176e-6
1.234,   3.182e-6
1.235,   3.177e-6
1.236,   3.170e-6
1.237,   3.170e-6
1.238,   3.155e-6
1.239,   3.154e-6
1.240,   3.184e-6
1.241,   3.173e-6
1.242,   3.161e-6
1.243,   3.162e-6
1.244,   3.166e-6
1.245,   3.192e-6
1.246,   3.165e-6
1.247,   3.175e-6
1.248,   3.176e-6
1.249,   3.161e-6
1.250,   3.178e-6
1.251,   3.177e-6
1.252,   3.213e-6
1.253,   3.185e-6
1.254,   3.185e-6
1.255,   3.182e-6
1.256,   3.187e-6
1.257,   3.197e-6
1.258,   3.200e-6
1.259,   3.184e-6
1.260,   3.181e-6
1.261,   3.188e-6
1.262,   3.204e-6
1.263,   3.210e-6
1.264,   3.223e-6
1.265,   3.208e-6
1.266,   3.216e-6
1.267,   3.204e-6
1.268,   3.186e-6
1.269,   3.206e-6
1.270,   3.230e-6
1.271,   3.208e-6
1.272,   3.216e-6
1.273,   3.244e-6
1.274,   3.242e-6
1.275,   3.274e-6
1.276,   3.261e-6
1.277,   3.254e-6
1.278,   3.256e-6
1.279,   3.287e-6
1.280,   3.255e-6
1.281,   3.251e-6
1.282,   3.247e-6
1.283,   3.293e-6
1.284,   3.289e-6
1.285,   3.274e-6
1.286,   3.303e-6
1.287,   3.311e-6
1.288,   3.340e-6
1.289,   3.298e-6
1.290,   3.333e-6
1.291,   3.322e-6
1.292,   3.315e-6
1.293,   3.310e-6
1.294,   3.325e-6
1.295,   3.347e-6
1.296,   3.362e-6
1.297,   3.352e-6
1.298,   3.390e-6
1.299,   3.364e-6
1.300,   3.356e-6
1.301,   3.400e-6
1.302,   3.412e-6
1.303,   3.409e-6
1.304,   3.438e-6
1.305,   3.409e-6
1.306,   3.410e-6
1.307,   3.443e-6
1.308,   3.459e-6
1.309,   3.459e-6
1.310,   3.469e-6
1.311,   3.474e-6
1.312,   3.515e-6
1.313,   3.488e-6
1.314,   3.502e-6
1.315,   3.512e-6
1.316,   3.501e-6
1.317,   3.529e-6
1.318,   3.557e-6
1.319,   3.561e-6
1.320,   3.569e-6
1.321,   3.605e-6
1.322,   3.615e-6
1.323,   3.607e-6
1.324,   3.634e-6
1.325,   3.633e-6
1.326,   3.623e-6
1.327,   3.671e-6
1.328,   3.654e-6
1.329,   3.657e-6
1.330,   3.677e-6
1.331,   3.692e-6
1.332,   3.734e-6
1.333,   3.704e-6
1.334,   3.757e-6
1.335,   3.790e-6
1.336,   3.801e-6
1.337,   3.821e-6
1.338,   3.817e-6
1.339,   3.830e-6
1.340,   3.832e-6
1.341,   3.848e-6
1.342,   3.880e-6
1.343,   3.878e-6
1.344,   3.894e-6
1.345,   3.895e-6
1.346,   3.956e-6
1.347,   3.951e-6
1.348,   3.951e-6
1.349,   3.990e-6
1.350,   4.043e-6
1.351,   4.037e-6
1.352,   4.060e-6
1.353,   4.062e-6
1.354,   4.084e-6
1.355,   4.106e-6
1.356,   4.121e-6
1.357,   4.161e-6
1.358,   4.187e-6
1.359,   4.184e-6
1.360,   4.260e-6
1.361,   4.293e-6
1.362,   4.296e-6
1.363,   4.316e-6
1.364,   4.359e-6
1.365,   4.375e-6
1.366,   4.435e-6
1.367,   4.469e-6
1.368,   4.488e-6
1.369,   4.525e-6
1.370,   4.601e-6
1.371,   4.614e-6
1.372,   4.667e-6
1.373,   4.676e-6
1.374,   4.757e-6
1.375,   4.785e-6
1.376,   4.862e-6
1.377,   4.899e-6
1.378,   4.937e-6
1.379,   5.011e-6
1.380,   5.072e-6
1.381,   5.169e-6
1.382,   5.243e-6
1.383,   5.268e-6
1.384,   5.374e-6
1.385,   5.456e-6
1.386,   5.545e-6
1.387,   5.630e-6
1.388,   5.737e-6
1.389,   5.812e-6
1.390,   5.919e-6
1.391,   6.039e-6
1.392,   6.182e-6
1.393,   6.314e-6
1.394,   6.439e-6
1.395,   6.561e-6
1.396,   6.691e-6
1.397,   6.870e-6
1.398,   7.057e-6
1.399,   7.223e-6
1.400,   7.392e-6
1.401,   7.590e-6
1.402,   7.775e-6
1.403,   8.015e-6
1.404,   8.214e-6
1.405,   8.424e-6
1.406,   8.681e-6
1.407,   8.982e-6
1.408,   9.261e-6
1.409,   9.571e-6
1.410,   9.895e-6
1.411,   1.020e-5
1.412,   1.058e-5
1.413,   1.092e-5
1.414,   1.131e-5
1.415,   1.175e-5
1.416,   1.217e-5
1.417,   1.264e-5
1.418,   1.314e-5
1.419,   1.364e-5
1.420,   1.417e-5
1.421,   1.477e-5
1.422,   1.535e-5
1.423,   1.601e-5
1.424,   1.666e-5
1.425,   1.734e-5
1.426,   1.811e-5
1.427,   1.888e-5
1.428,   1.972e-5
1.429,   2.061e-5
1.430,   2.148e-5
1.431,   2.245e-5
1.432,   2.351e-5
1.433,   2.457e-5
1.434,   2.566e-5
1.435,   2.687e-5
1.436,   2.804e-5
1.437,   2.932e-5
1.438,   3.068e-5
1.439,   3.211e-5
1.440,   3.361e-5
1.441,   3.518e-5
1.442,   3.678e-5
1.443,   3.837e-5
1.444,   4.016e-5
1.445,   4.206e-5
1.446,   4.406e-5
1.447,   4.614e-5
1.448,   4.831e-5
1.449,   5.058e-5
1.450,   5.295e-5
1.451,   5.541e-5
1.452,   5.792e-5
1.453,   6.059e-5
1.454,   6.338e-5
1.455,   6.623e-5
1.456,   6.923e-5
1.457,   7.231e-5
1.458,   7.560e-5
1.459,   7.901e-5
1.460,   8.250e-5
1.461,   8.610e-5
1.462,   8.982e-5
1.463,   9.369e-5
1.464,   9.768e-5
1.465,   1.018e-4
1.466,   1.062e-4
1.467,   1.105e-4
1.468,   1.150e-4
1.469,   1.196e-4
1.470,   1.244e-4
1.471,   1.295e-4
1.472,   1.346e-4
1.473,   1.399e-4
1.474,   1.452e-4
1.475,   1.508e-4
1.476,   1.566e-4
1.477,   1.629e-4
1.478,   1.690e-4
1.479,   1.751e-4
1.480,   1.815e-4
1.481,   1.879e-4
1.482,   1.944e-4
1.483,   2.009e-4
1.484,   2.078e-4
1.485,   2.147e-4
1.486,   2.217e-4
1.487,   2.288e-4
1.488,   2.361e-4
1.489,   2.434e-4
1.490,   2.508e-4
1.491,   2.585e-4
1.492,   2.661e-4
1.493,   2.738e-4
1.494,   2.815e-4
1.495,   2.895e-4
1.496,   2.975e-4
1.497,   3.056e-4
1.498,   3.138e-4
1.499,   3.221e-4
1.500,   3.303e-4
1.501,   3.386e-4
1.502,   3.471e-4
1.503,   3.556e-4
1.504,   3.642e-4
1.505,   3.727e-4
1.506,   3.814e-4
1.507,   3.902e-4
1.508,   3.990e-4
1.509,   4.078e-4
1.510,   4.166e-4
1.511,   4.254e-4
1.512,   4.342e-4
1.513,   4.432e-4
1.514,   4.521e-4
1.515,   4.611e-4
1.516,   4.703e-4
1.517,   4.797e-4
1.518,   4.889e-4
1.519,   4.981e-4
1.520,   5.074e-4
1.521,   5.166e-4
1.522,   5.262e-4
1.523,   5.360e-4
1.524,   5.457e-4
1.525,   5.554e-4
1.526,   5.650e-4
1.527,   5.748e-4
1.528,   5.850e-4
1.529,   5.952e-4
1.530,   6.056e-4
1.531,   6.161e-4
1.532,   6.267e-4
1.533,   6.371e-4
1.534,   6.475e-4
1.535,   6.580e-4
1.536,   6.687e-4
1.537,   6.805e-4
1.538,   6.923e-4
1.539,   7.036e-4
1.540,   7.152e-4
1.541,   7.269e-4
1.542,   7.382e-4
1.543,   7.497e-4
1.544,   7.611e-4
1.545,   7.727e-4
1.546,   7.843e-4
1.547,   7.962e-4
1.548,   8.085e-4
1.549,   8.209e-4
1.550,   8.333e-4
1.551,   8.459e-4
1.552,   8.582e-4
1.553,   8.711e-4
1.554,   8.844e-4
1.555,   8.975e-4
1.556,   9.105e-4
1.557,   9.236e-4
1.558,   9.372e-4
1.559,   9.545e-4
1.560,   9.702e-4
1.561,   9.850e-4
1.562,   9.985e-4
1.563,   1.012e-3
1.564,   1.025e-3
1.565,   1.039e-3
1.566,   1.052e-3
1.567,   1.065e-3
1.568,   1.079e-3
1.569,   1.092e-3
1.570,   1.105e-3
1.571,   1.119e-3
1.572,   1.132e-3
1.573,   1.145e-3
1.574,   1.159e-3
1.575,   1.173e-3
1.576,   1.188e-3
1.577,   1.201e-3
1.578,   1.216e-3
1.579,   1.230e-3
1.580,   1.238e-3
1.581,   1.243e-3
1.582,   1.261e-3
1.583,   1.278e-3
1.584,   1.293e-3
1.585,   1.306e-3
1.586,   1.321e-3
1.587,   1.335e-3
1.588,   1.349e-3
1.589,   1.362e-3
1.590,   1.375e-3
1.591,   1.389e-3
1.592,   1.402e-3
1.593,   1.416e-3
1.594,   1.429e-3
1.595,   1.441e-3
1.596,   1.453e-3
1.597,   1.466e-3
1.598,   1.478e-3
1.599,   1.489e-3
1.600,   1.501e-3
1.601,   1.512e-3
1.602,   1.528e-3
1.603,   1.541e-3
1.604,   1.550e-3
1.605,   1.561e-3
1.606,   1.573e-3
1.607,   1.584e-3
1.608,   1.595e-3
1.609,   1.606e-3
1.610,   1.619e-3
1.611,   1.630e-3
1.612,   1.640e-3
1.613,   1.649e-3
1.614,   1.658e-3
1.615,   1.675e-3
1.616,   1.687e-3
1.617,   1.696e-3
1.618,   1.715e-3
1.619,   1.727e-3
1.620,   1.736e-3
1.621,   1.749e-3
1.622,   1.759e-3
1.623,   1.767e-3
1.624,   1.774e-3
1.625,   1.782e-3
1.626,   1.789e-3
1.627,   1.798e-3
1.628,   1.814e-3
1.629,   1.834e-3
1.630,   1.845e-3
1.631,   1.854e-3
1.632,   1.862e-3
1.633,   1.869e-3
1.634,   1.877e-3
1.635,   1.888e-3
1.636,   1.896e-3
1.637,   1.904e-3
1.638,   1.913e-3
1.639,   1.918e-3
1.640,   1.922e-3
1.641,   1.930e-3
1.642,   1.937e-3
1.643,   1.942e-3
1.644,   1.950e-3
1.645,   1.957e-3
1.646,   1.963e-3
1.647,   1.970e-3
1.648,   1.976e-3
1.649,   1.982e-3
1.650,   1.990e-3
1.651,   1.996e-3
1.652,   1.999e-3
1.653,   2.005e-3
1.654,   2.011e-3
1.655,   2.018e-3
1.656,   2.025e-3
1.657,   2.030e-3
1.658,   2.035e-3
1.659,   2.045e-3
1.660,   2.073e-3
1.661,   2.084e-3
1.662,   2.086e-3
1.663,   2.087e-3
1.664,   2.099e-3
1.665,   2.104e-3
1.666,   2.108e-3
1.667,   2.110e-3
1.668,   2.113e-3
1.669,   2.116e-3
1.670,   2.119e-3
1.671,   2.123e-3
1.672,   2.127e-3