File: Experimental Records, Raw Data, and Supplementary Notes and Figures/batch4/final400/B4_VARIANCE_400_#6_High_Quality(#30)-382mV.txt
Mar. 24, 2023   13:23:46
Linear Sweep Voltammetry
File: d:\current work\al_oer\electrochemical test data\batch 4\400\B4_VARIANCE_400_#6_High_Quality(#30)-382mV.txt
Data Source:  Experiment
Instrument Model:  CHI660E
Header:
Note:

Init E (V) = 1.201

Final E (V) = 1.700

Scan Rate (V/s) = 0.010
Sample Interval (V) = 0.001
Quiet Time (sec) = 2
Sensitivity (A/V) = 0.001
Comp R (ohm) = 6.2

Results:

Channel 1:

Potential/V, Current/A
1.201,   -2.103e-6
1.202,   2.847e-7
1.203,   9.161e-7
1.204,   1.310e-6
1.205,   1.643e-6
1.206,   1.919e-6
1.207,   2.109e-6
1.208,   2.313e-6
1.209,   2.481e-6
1.210,   2.625e-6
1.211,   2.765e-6
1.212,   2.887e-6
1.213,   2.992e-6
1.214,   3.107e-6
1.215,   3.190e-6
1.216,   3.303e-6
1.217,   3.370e-6
1.218,   3.445e-6
1.219,   3.422e-6
1.220,   3.551e-6
1.221,   3.694e-6
1.222,   3.782e-6
1.223,   3.810e-6
1.224,   3.882e-6
1.225,   3.925e-6
1.226,   3.993e-6
1.227,   4.069e-6
1.228,   4.124e-6
1.229,   4.146e-6
1.230,   4.238e-6
1.231,   4.256e-6
1.232,   4.341e-6
1.233,   4.355e-6
1.234,   4.418e-6
1.235,   4.492e-6
1.236,   4.540e-6
1.237,   4.602e-6
1.238,   4.628e-6
1.239,   4.649e-6
1.240,   4.726e-6
1.241,   4.742e-6
1.242,   4.785e-6
1.243,   4.846e-6
1.244,   4.859e-6
1.245,   4.933e-6
1.246,   4.926e-6
1.247,   4.997e-6
1.248,   5.073e-6
1.249,   5.102e-6
1.250,   5.152e-6
1.251,   5.193e-6
1.252,   5.212e-6
1.253,   5.241e-6
1.254,   5.262e-6
1.255,   5.343e-6
1.256,   5.405e-6
1.257,   5.412e-6
1.258,   5.471e-6
1.259,   5.522e-6
1.260,   5.548e-6
1.261,   5.594e-6
1.262,   5.607e-6
1.263,   5.651e-6
1.264,   5.725e-6
1.265,   5.754e-6
1.266,   5.788e-6
1.267,   5.854e-6
1.268,   5.888e-6
1.269,   5.933e-6
1.270,   5.951e-6
1.271,   5.986e-6
1.272,   6.064e-6
1.273,   6.095e-6
1.274,   6.117e-6
1.275,   6.177e-6
1.276,   6.193e-6
1.277,   6.269e-6
1.278,   6.256e-6
1.279,   6.291e-6
1.280,   6.371e-6
1.281,   6.390e-6
1.282,   6.422e-6
1.283,   6.494e-6
1.284,   6.513e-6
1.285,   6.548e-6
1.286,   6.601e-6
1.287,   6.589e-6
1.288,   6.696e-6
1.289,   6.716e-6
1.290,   6.733e-6
1.291,   6.755e-6
1.292,   6.786e-6
1.293,   6.845e-6
1.294,   6.866e-6
1.295,   6.879e-6
1.296,   6.921e-6
1.297,   6.961e-6
1.298,   7.021e-6
1.299,   7.059e-6
1.300,   7.061e-6
1.301,   7.089e-6
1.302,   7.135e-6
1.303,   7.131e-6
1.304,   7.230e-6
1.305,   7.183e-6
1.306,   7.234e-6
1.307,   7.278e-6
1.308,   7.293e-6
1.309,   7.318e-6
1.310,   7.358e-6
1.311,   7.385e-6
1.312,   7.422e-6
1.313,   7.409e-6
1.314,   7.467e-6
1.315,   7.504e-6
1.316,   7.477e-6
1.317,   7.554e-6
1.318,   7.558e-6
1.319,   7.521e-6
1.320,   7.590e-6
1.321,   7.569e-6
1.322,   7.610e-6
1.323,   7.640e-6
1.324,   7.639e-6
1.325,   7.680e-6
1.326,   7.692e-6
1.327,   7.688e-6
1.328,   7.752e-6
1.329,   7.731e-6
1.330,   7.768e-6
1.331,   7.790e-6
1.332,   7.761e-6
1.333,   7.801e-6
1.334,   7.830e-6
1.335,   7.806e-6
1.336,   7.844e-6
1.337,   7.839e-6
1.338,   7.870e-6
1.339,   7.871e-6
1.340,   7.861e-6
1.341,   7.881e-6
1.342,   7.853e-6
1.343,   7.906e-6
1.344,   7.960e-6
1.345,   7.919e-6
1.346,   7.922e-6
1.347,   7.970e-6
1.348,   7.927e-6
1.349,   7.978e-6
1.350,   7.981e-6
1.351,   7.950e-6
1.352,   8.012e-6
1.353,   7.981e-6
1.354,   7.992e-6
1.355,   8.025e-6
1.356,   8.001e-6
1.357,   8.010e-6
1.358,   8.024e-6
1.359,   8.008e-6
1.360,   8.017e-6
1.361,   7.990e-6
1.362,   8.045e-6
1.363,   8.059e-6
1.364,   7.992e-6
1.365,   8.055e-6
1.366,   8.070e-6
1.367,   8.033e-6
1.368,   8.076e-6
1.369,   8.054e-6
1.370,   8.039e-6
1.371,   8.077e-6
1.372,   8.064e-6
1.373,   8.081e-6
1.374,   8.063e-6
1.375,   8.089e-6
1.376,   8.103e-6
1.377,   8.078e-6
1.378,   8.083e-6
1.379,   8.101e-6
1.380,   8.101e-6
1.381,   8.113e-6
1.382,   8.095e-6
1.383,   8.082e-6
1.384,   8.138e-6
1.385,   8.116e-6
1.386,   8.112e-6
1.387,   8.134e-6
1.388,   8.154e-6
1.389,   8.131e-6
1.390,   8.158e-6
1.391,   8.143e-6
1.392,   8.158e-6
1.393,   8.145e-6
1.394,   8.165e-6
1.395,   8.190e-6
1.396,   8.143e-6
1.397,   8.199e-6
1.398,   8.195e-6
1.399,   8.148e-6
1.400,   8.209e-6
1.401,   8.217e-6
1.402,   8.214e-6
1.403,   8.243e-6
1.404,   8.224e-6
1.405,   8.265e-6
1.406,   8.250e-6
1.407,   8.268e-6
1.408,   8.295e-6
1.409,   8.254e-6
1.410,   8.278e-6
1.411,   8.324e-6
1.412,   8.299e-6
1.413,   8.345e-6
1.414,   8.342e-6
1.415,   8.338e-6
1.416,   8.400e-6
1.417,   8.378e-6
1.418,   8.387e-6
1.419,   8.433e-6
1.420,   8.437e-6
1.421,   8.470e-6
1.422,   8.449e-6
1.423,   8.463e-6
1.424,   8.519e-6
1.425,   8.512e-6
1.426,   8.591e-6
1.427,   8.640e-6
1.428,   8.587e-6
1.429,   8.631e-6
1.430,   8.646e-6
1.431,   8.653e-6
1.432,   8.701e-6
1.433,   8.688e-6
1.434,   8.750e-6
1.435,   8.802e-6
1.436,   8.776e-6
1.437,   8.853e-6
1.438,   8.887e-6
1.439,   8.924e-6
1.440,   8.972e-6
1.441,   8.970e-6
1.442,   9.027e-6
1.443,   9.055e-6
1.444,   9.056e-6
1.445,   9.150e-6
1.446,   9.189e-6
1.447,   9.222e-6
1.448,   9.275e-6
1.449,   9.298e-6
1.450,   9.372e-6
1.451,   9.449e-6
1.452,   9.498e-6
1.453,   9.557e-6
1.454,   9.621e-6
1.455,   9.646e-6
1.456,   9.744e-6
1.457,   9.779e-6
1.458,   9.851e-6
1.459,   9.956e-6
1.460,   9.992e-6
1.461,   1.007e-5
1.462,   1.019e-5
1.463,   1.024e-5
1.464,   1.038e-5
1.465,   1.046e-5
1.466,   1.052e-5
1.467,   1.063e-5
1.468,   1.072e-5
1.469,   1.084e-5
1.470,   1.093e-5
1.471,   1.106e-5
1.472,   1.124e-5
1.473,   1.133e-5
1.474,   1.144e-5
1.475,   1.159e-5
1.476,   1.170e-5
1.477,   1.194e-5
1.478,   1.214e-5
1.479,   1.224e-5
1.480,   1.248e-5
1.481,   1.264e-5
1.482,   1.286e-5
1.483,   1.307e-5
1.484,   1.328e-5
1.485,   1.351e-5
1.486,   1.376e-5
1.487,   1.400e-5
1.488,   1.433e-5
1.489,   1.455e-5
1.490,   1.490e-5
1.491,   1.528e-5
1.492,   1.553e-5
1.493,   1.591e-5
1.494,   1.628e-5
1.495,   1.666e-5
1.496,   1.712e-5
1.497,   1.753e-5
1.498,   1.798e-5
1.499,   1.849e-5
1.500,   1.894e-5
1.501,   1.951e-5
1.502,   2.009e-5
1.503,   2.071e-5
1.504,   2.134e-5
1.505,   2.194e-5
1.506,   2.270e-5
1.507,   2.346e-5
1.508,   2.415e-5
1.509,   2.502e-5
1.510,   2.592e-5
1.511,   2.678e-5
1.512,   2.775e-5
1.513,   2.871e-5
1.514,   2.977e-5
1.515,   3.091e-5
1.516,   3.207e-5
1.517,   3.333e-5
1.518,   3.463e-5
1.519,   3.594e-5
1.520,   3.743e-5
1.521,   3.876e-5
1.522,   4.039e-5
1.523,   4.207e-5
1.524,   4.370e-5
1.525,   4.562e-5
1.526,   4.752e-5
1.527,   4.950e-5
1.528,   5.170e-5
1.529,   5.389e-5
1.530,   5.619e-5
1.531,   5.870e-5
1.532,   6.119e-5
1.533,   6.395e-5
1.534,   6.677e-5
1.535,   6.971e-5
1.536,   7.290e-5
1.537,   7.611e-5
1.538,   7.965e-5
1.539,   8.331e-5
1.540,   8.697e-5
1.541,   9.103e-5
1.542,   9.518e-5
1.543,   9.937e-5
1.544,   1.040e-4
1.545,   1.087e-4
1.546,   1.137e-4
1.547,   1.190e-4
1.548,   1.245e-4
1.549,   1.303e-4
1.550,   1.362e-4
1.551,   1.425e-4
1.552,   1.492e-4
1.553,   1.560e-4
1.554,   1.633e-4
1.555,   1.709e-4
1.556,   1.787e-4
1.557,   1.870e-4
1.558,   1.955e-4
1.559,   2.045e-4
1.560,   2.140e-4
1.561,   2.238e-4
1.562,   2.342e-4
1.563,   2.450e-4
1.564,   2.562e-4
1.565,   2.681e-4
1.566,   2.805e-4
1.567,   2.933e-4
1.568,   3.068e-4
1.569,   3.207e-4
1.570,   3.355e-4
1.571,   3.508e-4
1.572,   3.665e-4
1.573,   3.832e-4
1.574,   4.008e-4
1.575,   4.187e-4
1.576,   4.377e-4
1.577,   4.572e-4
1.578,   4.782e-4
1.579,   4.996e-4
1.580,   5.219e-4
1.581,   5.453e-4
1.582,   5.694e-4
1.583,   5.944e-4
1.584,   6.209e-4
1.585,   6.482e-4
1.586,   6.767e-4
1.587,   7.063e-4
1.588,   7.366e-4
1.589,   7.686e-4
1.590,   8.021e-4
1.591,   8.358e-4
1.592,   8.715e-4
1.593,   9.086e-4
1.594,   9.470e-4
1.595,   9.870e-4
1.596,   1.029e-3
1.597,   1.071e-3
1.598,   1.115e-3
1.599,   1.160e-3
1.600,   1.207e-3
1.601,   1.256e-3
1.602,   1.308e-3
1.603,   1.361e-3
1.604,   1.414e-3
1.605,   1.470e-3
1.606,   1.528e-3
1.607,   1.586e-3
1.608,   1.645e-3
1.609,   1.704e-3
1.610,   1.769e-3
1.611,   1.836e-3
1.612,   1.904e-3
1.613,   1.975e-3
1.614,   2.044e-3
1.615,   2.114e-3
1.616,   2.189e-3
1.617,   2.279e-3
1.618,   2.354e-3
1.619,   2.443e-3
1.620,   2.526e-3
1.621,   2.603e-3
1.622,   2.683e-3
1.623,   2.770e-3
1.624,   2.859e-3
1.625,   2.944e-3
1.626,   3.044e-3
1.627,   3.131e-3
1.628,   3.228e-3
1.629,   3.338e-3
1.630,   3.436e-3
1.631,   3.534e-3
1.632,   3.645e-3
1.633,   3.733e-3
1.634,   3.835e-3
1.635,   3.937e-3
1.636,   4.052e-3
1.637,   4.155e-3
1.638,   4.258e-3
1.639,   4.366e-3
1.640,   4.493e-3
1.641,   4.603e-3
1.642,   4.718e-3
1.643,   4.820e-3
1.644,   4.922e-3
1.645,   5.050e-3
1.646,   5.154e-3
1.647,   5.242e-3
1.648,   5.366e-3
1.649,   5.478e-3
1.650,   5.611e-3
1.651,   5.741e-3
1.652,   5.867e-3
1.653,   5.932e-3
1.654,   6.076e-3
1.655,   6.244e-3
1.656,   6.384e-3
1.657,   6.464e-3
1.658,   6.631e-3
1.659,   6.704e-3
1.660,   6.791e-3
1.661,   6.956e-3
1.662,   7.130e-3
1.663,   7.277e-3
1.664,   7.411e-3
1.665,   7.469e-3
1.666,   7.565e-3
1.667,   7.642e-3
1.668,   7.784e-3
1.669,   8.119e-3
1.670,   8.345e-3
1.671,   8.340e-3
1.672,   8.495e-3
1.673,   8.533e-3
1.674,   8.718e-3
1.675,   8.719e-3
1.676,   8.875e-3
1.677,   9.070e-3
1.678,   9.343e-3
1.679,   9.443e-3
1.680,   9.678e-3
1.681,   9.821e-3
1.682,   9.776e-3
1.683,   9.864e-3
1.684,   1.001e-2
1.685,   1.006e-2
1.686,   1.006e-2
1.687,   1.006e-2
1.688,   1.006e-2
1.689,   1.006e-2
1.690,   1.006e-2
1.691,   1.006e-2
1.692,   1.006e-2
1.693,   1.006e-2
1.694,   1.006e-2
1.695,   1.006e-2
1.696,   1.006e-2
1.697,   1.006e-2
1.698,   1.006e-2
1.699,   1.006e-2
1.700,   1.006e-2