File: Experimental Records, Raw Data, and Supplementary Notes and Figures/batch5/final400/B5_BEST_400_#1_Full(#5)-303mV.txt
May 30, 2023   20:48:56
Linear Sweep Voltammetry
File: d:\current work\al_oer\electrochemical test data\batch 5\400\B5_BEST_400_#1_Full(#5)-303mV.txt
Data Source:  Experiment
Instrument Model:  CHI660E
Header:
Note:

Init E (V) = 0.905

Final E (V) = 1.704

Scan Rate (V/s) = 0.010
Sample Interval (V) = 0.001
Quiet Time (sec) = 2
Sensitivity (A/V) = 0.001
Comp R (ohm) = 6.2

Results:

Channel 1:
Ep = 1.673V
ip = 6.013e-3A
Ah = 7.052e-2C

Potential/V, Current/A
0.905,   4.838e-5
0.906,   4.792e-5
0.907,   4.684e-5
0.908,   4.573e-5
0.909,   4.471e-5
0.910,   4.365e-5
0.911,   4.272e-5
0.912,   4.183e-5
0.913,   4.097e-5
0.914,   4.016e-5
0.915,   3.931e-5
0.916,   3.863e-5
0.917,   3.788e-5
0.918,   3.722e-5
0.919,   3.663e-5
0.920,   3.598e-5
0.921,   3.546e-5
0.922,   3.485e-5
0.923,   3.434e-5
0.924,   3.377e-5
0.925,   3.328e-5
0.926,   3.280e-5
0.927,   3.237e-5
0.928,   3.188e-5
0.929,   3.145e-5
0.930,   3.103e-5
0.931,   3.064e-5
0.932,   3.025e-5
0.933,   2.986e-5
0.934,   2.950e-5
0.935,   2.915e-5
0.936,   2.883e-5
0.937,   2.852e-5
0.938,   2.813e-5
0.939,   2.785e-5
0.940,   2.759e-5
0.941,   2.726e-5
0.942,   2.696e-5
0.943,   2.671e-5
0.944,   2.646e-5
0.945,   2.622e-5
0.946,   2.590e-5
0.947,   2.567e-5
0.948,   2.545e-5
0.949,   2.519e-5
0.950,   2.501e-5
0.951,   2.477e-5
0.952,   2.455e-5
0.953,   2.435e-5
0.954,   2.413e-5
0.955,   2.398e-5
0.956,   2.372e-5
0.957,   2.355e-5
0.958,   2.337e-5
0.959,   2.320e-5
0.960,   2.302e-5
0.961,   2.284e-5
0.962,   2.269e-5
0.963,   2.251e-5
0.964,   2.236e-5
0.965,   2.221e-5
0.966,   2.204e-5
0.967,   2.192e-5
0.968,   2.175e-5
0.969,   2.161e-5
0.970,   2.152e-5
0.971,   2.135e-5
0.972,   2.119e-5
0.973,   2.103e-5
0.974,   2.094e-5
0.975,   2.085e-5
0.976,   2.069e-5
0.977,   2.058e-5
0.978,   2.049e-5
0.979,   2.035e-5
0.980,   2.028e-5
0.981,   2.011e-5
0.982,   2.008e-5
0.983,   1.992e-5
0.984,   1.980e-5
0.985,   1.970e-5
0.986,   1.960e-5
0.987,   1.950e-5
0.988,   1.940e-5
0.989,   1.931e-5
0.990,   1.923e-5
0.991,   1.912e-5
0.992,   1.901e-5
0.993,   1.894e-5
0.994,   1.887e-5
0.995,   1.878e-5
0.996,   1.868e-5
0.997,   1.858e-5
0.998,   1.854e-5
0.999,   1.842e-5
1.000,   1.836e-5
1.001,   1.831e-5
1.002,   1.818e-5
1.003,   1.815e-5
1.004,   1.806e-5
1.005,   1.799e-5
1.006,   1.792e-5
1.007,   1.786e-5
1.008,   1.779e-5
1.009,   1.774e-5
1.010,   1.765e-5
1.011,   1.758e-5
1.012,   1.754e-5
1.013,   1.747e-5
1.014,   1.741e-5
1.015,   1.736e-5
1.016,   1.731e-5
1.017,   1.725e-5
1.018,   1.719e-5
1.019,   1.712e-5
1.020,   1.709e-5
1.021,   1.701e-5
1.022,   1.698e-5
1.023,   1.693e-5
1.024,   1.686e-5
1.025,   1.681e-5
1.026,   1.677e-5
1.027,   1.672e-5
1.028,   1.668e-5
1.029,   1.665e-5
1.030,   1.660e-5
1.031,   1.655e-5
1.032,   1.650e-5
1.033,   1.650e-5
1.034,   1.646e-5
1.035,   1.640e-5
1.036,   1.636e-5
1.037,   1.630e-5
1.038,   1.628e-5
1.039,   1.624e-5
1.040,   1.619e-5
1.041,   1.617e-5
1.042,   1.614e-5
1.043,   1.607e-5
1.044,   1.603e-5
1.045,   1.605e-5
1.046,   1.602e-5
1.047,   1.598e-5
1.048,   1.594e-5
1.049,   1.591e-5
1.050,   1.588e-5
1.051,   1.583e-5
1.052,   1.581e-5
1.053,   1.576e-5
1.054,   1.578e-5
1.055,   1.575e-5
1.056,   1.571e-5
1.057,   1.570e-5
1.058,   1.568e-5
1.059,   1.567e-5
1.060,   1.561e-5
1.061,   1.560e-5
1.062,   1.558e-5
1.063,   1.557e-5
1.064,   1.554e-5
1.065,   1.553e-5
1.066,   1.554e-5
1.067,   1.546e-5
1.068,   1.550e-5
1.069,   1.544e-5
1.070,   1.542e-5
1.071,   1.546e-5
1.072,   1.537e-5
1.073,   1.537e-5
1.074,   1.538e-5
1.075,   1.539e-5
1.076,   1.529e-5
1.077,   1.535e-5
1.078,   1.531e-5
1.079,   1.527e-5
1.080,   1.531e-5
1.081,   1.529e-5
1.082,   1.526e-5
1.083,   1.525e-5
1.084,   1.525e-5
1.085,   1.522e-5
1.086,   1.522e-5
1.087,   1.523e-5
1.088,   1.518e-5
1.089,   1.520e-5
1.090,   1.523e-5
1.091,   1.514e-5
1.092,   1.520e-5
1.093,   1.519e-5
1.094,   1.513e-5
1.095,   1.515e-5
1.096,   1.515e-5
1.097,   1.515e-5
1.098,   1.514e-5
1.099,   1.519e-5
1.100,   1.513e-5
1.101,   1.510e-5
1.102,   1.511e-5
1.103,   1.516e-5
1.104,   1.513e-5
1.105,   1.508e-5
1.106,   1.513e-5
1.107,   1.513e-5
1.108,   1.513e-5
1.109,   1.512e-5
1.110,   1.512e-5
1.111,   1.513e-5
1.112,   1.513e-5
1.113,   1.513e-5
1.114,   1.515e-5
1.115,   1.515e-5
1.116,   1.518e-5
1.117,   1.508e-5
1.118,   1.515e-5
1.119,   1.521e-5
1.120,   1.511e-5
1.121,   1.515e-5
1.122,   1.521e-5
1.123,   1.517e-5
1.124,   1.516e-5
1.125,   1.515e-5
1.126,   1.520e-5
1.127,   1.516e-5
1.128,   1.524e-5
1.129,   1.521e-5
1.130,   1.515e-5
1.131,   1.522e-5
1.132,   1.524e-5
1.133,   1.522e-5
1.134,   1.525e-5
1.135,   1.527e-5
1.136,   1.524e-5
1.137,   1.529e-5
1.138,   1.529e-5
1.139,   1.528e-5
1.140,   1.531e-5
1.141,   1.530e-5
1.142,   1.536e-5
1.143,   1.534e-5
1.144,   1.531e-5
1.145,   1.534e-5
1.146,   1.543e-5
1.147,   1.537e-5
1.148,   1.535e-5
1.149,   1.545e-5
1.150,   1.543e-5
1.151,   1.543e-5
1.152,   1.544e-5
1.153,   1.544e-5
1.154,   1.548e-5
1.155,   1.548e-5
1.156,   1.550e-5
1.157,   1.549e-5
1.158,   1.552e-5
1.159,   1.555e-5
1.160,   1.557e-5
1.161,   1.557e-5
1.162,   1.557e-5
1.163,   1.559e-5
1.164,   1.564e-5
1.165,   1.562e-5
1.166,   1.563e-5
1.167,   1.567e-5
1.168,   1.566e-5
1.169,   1.561e-5
1.170,   1.571e-5
1.171,   1.576e-5
1.172,   1.576e-5
1.173,   1.576e-5
1.174,   1.576e-5
1.175,   1.579e-5
1.176,   1.582e-5
1.177,   1.581e-5
1.178,   1.577e-5
1.179,   1.586e-5
1.180,   1.590e-5
1.181,   1.587e-5
1.182,   1.598e-5
1.183,   1.592e-5
1.184,   1.600e-5
1.185,   1.594e-5
1.186,   1.604e-5
1.187,   1.605e-5
1.188,   1.601e-5
1.189,   1.604e-5
1.190,   1.611e-5
1.191,   1.614e-5
1.192,   1.607e-5
1.193,   1.614e-5
1.194,   1.617e-5
1.195,   1.620e-5
1.196,   1.622e-5
1.197,   1.624e-5
1.198,   1.633e-5
1.199,   1.629e-5
1.200,   1.630e-5
1.201,   1.633e-5
1.202,   1.636e-5
1.203,   1.636e-5
1.204,   1.639e-5
1.205,   1.642e-5
1.206,   1.644e-5
1.207,   1.641e-5
1.208,   1.650e-5
1.209,   1.650e-5
1.210,   1.653e-5
1.211,   1.658e-5
1.212,   1.660e-5
1.213,   1.666e-5
1.214,   1.667e-5
1.215,   1.670e-5
1.216,   1.670e-5
1.217,   1.674e-5
1.218,   1.677e-5
1.219,   1.677e-5
1.220,   1.683e-5
1.221,   1.686e-5
1.222,   1.687e-5
1.223,   1.688e-5
1.224,   1.694e-5
1.225,   1.695e-5
1.226,   1.700e-5
1.227,   1.703e-5
1.228,   1.703e-5
1.229,   1.701e-5
1.230,   1.707e-5
1.231,   1.712e-5
1.232,   1.718e-5
1.233,   1.720e-5
1.234,   1.729e-5
1.235,   1.726e-5
1.236,   1.734e-5
1.237,   1.732e-5
1.238,   1.740e-5
1.239,   1.744e-5
1.240,   1.744e-5
1.241,   1.741e-5
1.242,   1.757e-5
1.243,   1.753e-5
1.244,   1.757e-5
1.245,   1.760e-5
1.246,   1.764e-5
1.247,   1.760e-5
1.248,   1.769e-5
1.249,   1.773e-5
1.250,   1.776e-5
1.251,   1.782e-5
1.252,   1.788e-5
1.253,   1.782e-5
1.254,   1.791e-5
1.255,   1.794e-5
1.256,   1.797e-5
1.257,   1.801e-5
1.258,   1.805e-5
1.259,   1.814e-5
1.260,   1.807e-5
1.261,   1.813e-5
1.262,   1.820e-5
1.263,   1.823e-5
1.264,   1.825e-5
1.265,   1.829e-5
1.266,   1.840e-5
1.267,   1.840e-5
1.268,   1.840e-5
1.269,   1.846e-5
1.270,   1.848e-5
1.271,   1.856e-5
1.272,   1.860e-5
1.273,   1.868e-5
1.274,   1.861e-5
1.275,   1.872e-5
1.276,   1.875e-5
1.277,   1.878e-5
1.278,   1.884e-5
1.279,   1.896e-5
1.280,   1.886e-5
1.281,   1.898e-5
1.282,   1.905e-5
1.283,   1.899e-5
1.284,   1.910e-5
1.285,   1.916e-5
1.286,   1.920e-5
1.287,   1.926e-5
1.288,   1.928e-5
1.289,   1.933e-5
1.290,   1.939e-5
1.291,   1.944e-5
1.292,   1.950e-5
1.293,   1.951e-5
1.294,   1.963e-5
1.295,   1.959e-5
1.296,   1.965e-5
1.297,   1.973e-5
1.298,   1.980e-5
1.299,   1.989e-5
1.300,   1.985e-5
1.301,   1.993e-5
1.302,   1.999e-5
1.303,   2.004e-5
1.304,   2.010e-5
1.305,   2.016e-5
1.306,   2.018e-5
1.307,   2.028e-5
1.308,   2.029e-5
1.309,   2.034e-5
1.310,   2.042e-5
1.311,   2.052e-5
1.312,   2.054e-5
1.313,   2.060e-5
1.314,   2.067e-5
1.315,   2.071e-5
1.316,   2.079e-5
1.317,   2.086e-5
1.318,   2.094e-5
1.319,   2.096e-5
1.320,   2.109e-5
1.321,   2.108e-5
1.322,   2.116e-5
1.323,   2.125e-5
1.324,   2.131e-5
1.325,   2.138e-5
1.326,   2.143e-5
1.327,   2.159e-5
1.328,   2.155e-5
1.329,   2.166e-5
1.330,   2.173e-5
1.331,   2.183e-5
1.332,   2.192e-5
1.333,   2.197e-5
1.334,   2.204e-5
1.335,   2.215e-5
1.336,   2.225e-5
1.337,   2.229e-5
1.338,   2.241e-5
1.339,   2.253e-5
1.340,   2.253e-5
1.341,   2.274e-5
1.342,   2.274e-5
1.343,   2.287e-5
1.344,   2.292e-5
1.345,   2.303e-5
1.346,   2.314e-5
1.347,   2.320e-5
1.348,   2.331e-5
1.349,   2.344e-5
1.350,   2.352e-5
1.351,   2.361e-5
1.352,   2.365e-5
1.353,   2.383e-5
1.354,   2.395e-5
1.355,   2.410e-5
1.356,   2.421e-5
1.357,   2.429e-5
1.358,   2.442e-5
1.359,   2.453e-5
1.360,   2.465e-5
1.361,   2.478e-5
1.362,   2.493e-5
1.363,   2.502e-5
1.364,   2.523e-5
1.365,   2.528e-5
1.366,   2.543e-5
1.367,   2.563e-5
1.368,   2.584e-5
1.369,   2.591e-5
1.370,   2.608e-5
1.371,   2.614e-5
1.372,   2.637e-5
1.373,   2.651e-5
1.374,   2.668e-5
1.375,   2.689e-5
1.376,   2.700e-5
1.377,   2.718e-5
1.378,   2.736e-5
1.379,   2.766e-5
1.380,   2.780e-5
1.381,   2.788e-5
1.382,   2.824e-5
1.383,   2.831e-5
1.384,   2.855e-5
1.385,   2.882e-5
1.386,   2.901e-5
1.387,   2.927e-5
1.388,   2.957e-5
1.389,   2.970e-5
1.390,   2.998e-5
1.391,   3.028e-5
1.392,   3.057e-5
1.393,   3.074e-5
1.394,   3.112e-5
1.395,   3.140e-5
1.396,   3.172e-5
1.397,   3.203e-5
1.398,   3.238e-5
1.399,   3.274e-5
1.400,   3.316e-5
1.401,   3.358e-5
1.402,   3.392e-5
1.403,   3.422e-5
1.404,   3.473e-5
1.405,   3.524e-5
1.406,   3.565e-5
1.407,   3.605e-5
1.408,   3.657e-5
1.409,   3.713e-5
1.410,   3.780e-5
1.411,   3.827e-5
1.412,   3.882e-5
1.413,   3.957e-5
1.414,   4.020e-5
1.415,   4.103e-5
1.416,   4.167e-5
1.417,   4.249e-5
1.418,   4.340e-5
1.419,   4.427e-5
1.420,   4.520e-5
1.421,   4.622e-5
1.422,   4.729e-5
1.423,   4.830e-5
1.424,   4.954e-5
1.425,   5.077e-5
1.426,   5.207e-5
1.427,   5.344e-5
1.428,   5.492e-5
1.429,   5.643e-5
1.430,   5.800e-5
1.431,   5.971e-5
1.432,   6.158e-5
1.433,   6.359e-5
1.434,   6.559e-5
1.435,   6.765e-5
1.436,   7.012e-5
1.437,   7.240e-5
1.438,   7.516e-5
1.439,   7.795e-5
1.440,   8.067e-5
1.441,   8.374e-5
1.442,   8.696e-5
1.443,   9.032e-5
1.444,   9.397e-5
1.445,   9.777e-5
1.446,   1.016e-4
1.447,   1.058e-4
1.448,   1.103e-4
1.449,   1.149e-4
1.450,   1.198e-4
1.451,   1.250e-4
1.452,   1.305e-4
1.453,   1.361e-4
1.454,   1.422e-4
1.455,   1.483e-4
1.456,   1.550e-4
1.457,   1.620e-4
1.458,   1.693e-4
1.459,   1.768e-4
1.460,   1.850e-4
1.461,   1.929e-4
1.462,   2.016e-4
1.463,   2.108e-4
1.464,   2.202e-4
1.465,   2.301e-4
1.466,   2.405e-4
1.467,   2.510e-4
1.468,   2.621e-4
1.469,   2.737e-4
1.470,   2.856e-4
1.471,   2.980e-4
1.472,   3.108e-4
1.473,   3.239e-4
1.474,   3.374e-4
1.475,   3.514e-4
1.476,   3.655e-4
1.477,   3.803e-4
1.478,   3.959e-4
1.479,   4.112e-4
1.480,   4.267e-4
1.481,   4.433e-4
1.482,   4.596e-4
1.483,   4.764e-4
1.484,   4.934e-4
1.485,   5.103e-4
1.486,   5.273e-4
1.487,   5.455e-4
1.488,   5.638e-4
1.489,   5.823e-4
1.490,   6.018e-4
1.491,   6.205e-4
1.492,   6.401e-4
1.493,   6.605e-4
1.494,   6.807e-4
1.495,   7.013e-4
1.496,   7.218e-4
1.497,   7.431e-4
1.498,   7.647e-4
1.499,   7.870e-4
1.500,   8.098e-4
1.501,   8.326e-4
1.502,   8.559e-4
1.503,   8.806e-4
1.504,   9.053e-4
1.505,   9.329e-4
1.506,   9.586e-4
1.507,   9.856e-4
1.508,   1.013e-3
1.509,   1.041e-3
1.510,   1.071e-3
1.511,   1.101e-3
1.512,   1.131e-3
1.513,   1.165e-3
1.514,   1.196e-3
1.515,   1.227e-3
1.516,   1.262e-3
1.517,   1.295e-3
1.518,   1.327e-3
1.519,   1.362e-3
1.520,   1.397e-3
1.521,   1.433e-3
1.522,   1.470e-3
1.523,   1.507e-3
1.524,   1.545e-3
1.525,   1.580e-3
1.526,   1.619e-3
1.527,   1.662e-3
1.528,   1.702e-3
1.529,   1.742e-3
1.530,   1.784e-3
1.531,   1.826e-3
1.532,   1.867e-3
1.533,   1.909e-3
1.534,   1.952e-3
1.535,   1.994e-3
1.536,   2.036e-3
1.537,   2.083e-3
1.538,   2.127e-3
1.539,   2.170e-3
1.540,   2.215e-3
1.541,   2.258e-3
1.542,   2.300e-3
1.543,   2.350e-3
1.544,   2.392e-3
1.545,   2.435e-3
1.546,   2.484e-3
1.547,   2.530e-3
1.548,   2.576e-3
1.549,   2.623e-3
1.550,   2.668e-3
1.551,   2.715e-3
1.552,   2.759e-3
1.553,   2.799e-3
1.554,   2.849e-3
1.555,   2.898e-3
1.556,   2.940e-3
1.557,   2.995e-3
1.558,   3.047e-3
1.559,   3.083e-3
1.560,   3.132e-3
1.561,   3.173e-3
1.562,   3.222e-3
1.563,   3.270e-3
1.564,   3.316e-3
1.565,   3.363e-3
1.566,   3.402e-3
1.567,   3.446e-3
1.568,   3.481e-3
1.569,   3.525e-3
1.570,   3.579e-3
1.571,   3.618e-3
1.572,   3.651e-3
1.573,   3.702e-3
1.574,   3.738e-3
1.575,   3.786e-3
1.576,   3.840e-3
1.577,   3.881e-3
1.578,   3.924e-3
1.579,   3.976e-3
1.580,   4.020e-3
1.581,   4.057e-3
1.582,   4.098e-3
1.583,   4.126e-3
1.584,   4.162e-3
1.585,   4.204e-3
1.586,   4.240e-3
1.587,   4.283e-3
1.588,   4.333e-3
1.589,   4.368e-3
1.590,   4.404e-3
1.591,   4.447e-3
1.592,   4.475e-3
1.593,   4.527e-3
1.594,   4.574e-3
1.595,   4.609e-3
1.596,   4.646e-3
1.597,   4.689e-3
1.598,   4.718e-3
1.599,   4.745e-3
1.600,   4.771e-3
1.601,   4.793e-3
1.602,   4.859e-3
1.603,   4.892e-3
1.604,   4.917e-3
1.605,   4.980e-3
1.606,   5.008e-3
1.607,   5.033e-3
1.608,   5.081e-3
1.609,   5.094e-3
1.610,   5.113e-3
1.611,   5.170e-3
1.612,   5.201e-3
1.613,   5.234e-3
1.614,   5.296e-3
1.615,   5.297e-3
1.616,   5.320e-3
1.617,   5.358e-3
1.618,   5.391e-3
1.619,   5.402e-3
1.620,   5.456e-3
1.621,   5.479e-3
1.622,   5.491e-3
1.623,   5.512e-3
1.624,   5.531e-3
1.625,   5.563e-3
1.626,   5.652e-3
1.627,   5.676e-3
1.628,   5.696e-3
1.629,   5.720e-3
1.630,   5.734e-3
1.631,   5.734e-3
1.632,   5.759e-3
1.633,   5.775e-3
1.634,   5.777e-3
1.635,   5.825e-3
1.636,   5.868e-3
1.637,   5.888e-3
1.638,   5.922e-3
1.639,   5.929e-3
1.640,   5.936e-3
1.641,   5.970e-3
1.642,   5.968e-3
1.643,   6.021e-3
1.644,   6.087e-3
1.645,   6.085e-3
1.646,   6.082e-3
1.647,   6.108e-3
1.648,   6.097e-3
1.649,   6.162e-3
1.650,   6.181e-3
1.651,   6.219e-3
1.652,   6.273e-3
1.653,   6.295e-3
1.654,   6.294e-3
1.655,   6.276e-3
1.656,   6.296e-3
1.657,   6.295e-3
1.658,   6.275e-3
1.659,   6.278e-3
1.660,   6.270e-3
1.661,   6.277e-3
1.662,   6.278e-3
1.663,   6.268e-3
1.664,   6.251e-3
1.665,   6.256e-3
1.666,   6.247e-3
1.667,   6.233e-3
1.668,   6.241e-3
1.669,   6.240e-3
1.670,   6.227e-3
1.671,   6.231e-3
1.672,   6.228e-3
1.673,   6.212e-3
1.674,   6.228e-3
1.675,   6.215e-3
1.676,   6.221e-3
1.677,   6.282e-3
1.678,   6.297e-3
1.679,   6.281e-3
1.680,   6.263e-3
1.681,   6.235e-3
1.682,   6.211e-3
1.683,   6.210e-3
1.684,   6.196e-3
1.685,   6.165e-3
1.686,   6.151e-3
1.687,   6.124e-3
1.688,   6.129e-3
1.689,   6.137e-3
1.690,   6.236e-3
1.691,   6.245e-3
1.692,   6.227e-3
1.693,   6.197e-3
1.694,   6.181e-3
1.695,   6.158e-3
1.696,   6.124e-3
1.697,   6.102e-3
1.698,   6.080e-3
1.699,   6.061e-3
1.700,   6.034e-3
1.701,   6.008e-3
1.702,   6.005e-3
1.703,   5.989e-3
1.704,   6.008e-3