File: Experimental Records, Raw Data, and Supplementary Notes and Figures/batch5/final400/B5_BEST_400_#1_High_Quality(#26)-227mV.txt
May 31, 2023   13:13:50
Linear Sweep Voltammetry
File: d:\current work\al_oer\electrochemical test data\batch 5\400\B5_BEST_400_#1_High_Quality(#26)-227mV.txt
Data Source:  Experiment
Instrument Model:  CHI660E
Header:
Note:

Init E (V) = 0.899

Final E (V) = 1.528

Scan Rate (V/s) = 0.010
Sample Interval (V) = 0.001
Quiet Time (sec) = 2
Sensitivity (A/V) = 0.001
Comp R (ohm) = 6.1

Results:

Channel 1:

Potential/V, Current/A
0.899,   1.415e-4
0.900,   1.693e-4
0.901,   1.705e-4
0.902,   1.709e-4
0.903,   1.708e-4
0.904,   1.713e-4
0.905,   1.696e-4
0.906,   1.697e-4
0.907,   1.698e-4
0.908,   1.699e-4
0.909,   1.661e-4
0.910,   1.674e-4
0.911,   1.666e-4
0.912,   1.654e-4
0.913,   1.651e-4
0.914,   1.650e-4
0.915,   1.641e-4
0.916,   1.616e-4
0.917,   1.641e-4
0.918,   1.607e-4
0.919,   1.602e-4
0.920,   1.604e-4
0.921,   1.602e-4
0.922,   1.590e-4
0.923,   1.581e-4
0.924,   1.579e-4
0.925,   1.567e-4
0.926,   1.567e-4
0.927,   1.560e-4
0.928,   1.565e-4
0.929,   1.551e-4
0.930,   1.539e-4
0.931,   1.543e-4
0.932,   1.526e-4
0.933,   1.529e-4
0.934,   1.540e-4
0.935,   1.529e-4
0.936,   1.509e-4
0.937,   1.520e-4
0.938,   1.502e-4
0.939,   1.502e-4
0.940,   1.502e-4
0.941,   1.504e-4
0.942,   1.498e-4
0.943,   1.491e-4
0.944,   1.500e-4
0.945,   1.482e-4
0.946,   1.475e-4
0.947,   1.472e-4
0.948,   1.471e-4
0.949,   1.474e-4
0.950,   1.483e-4
0.951,   1.458e-4
0.952,   1.453e-4
0.953,   1.446e-4
0.954,   1.453e-4
0.955,   1.469e-4
0.956,   1.457e-4
0.957,   1.433e-4
0.958,   1.432e-4
0.959,   1.456e-4
0.960,   1.441e-4
0.961,   1.440e-4
0.962,   1.439e-4
0.963,   1.429e-4
0.964,   1.434e-4
0.965,   1.416e-4
0.966,   1.421e-4
0.967,   1.412e-4
0.968,   1.427e-4
0.969,   1.420e-4
0.970,   1.425e-4
0.971,   1.411e-4
0.972,   1.410e-4
0.973,   1.413e-4
0.974,   1.411e-4
0.975,   1.411e-4
0.976,   1.408e-4
0.977,   1.406e-4
0.978,   1.397e-4
0.979,   1.408e-4
0.980,   1.408e-4
0.981,   1.389e-4
0.982,   1.402e-4
0.983,   1.398e-4
0.984,   1.393e-4
0.985,   1.388e-4
0.986,   1.390e-4
0.987,   1.392e-4
0.988,   1.396e-4
0.989,   1.384e-4
0.990,   1.390e-4
0.991,   1.389e-4
0.992,   1.380e-4
0.993,   1.388e-4
0.994,   1.386e-4
0.995,   1.389e-4
0.996,   1.380e-4
0.997,   1.383e-4
0.998,   1.390e-4
0.999,   1.378e-4
1.000,   1.368e-4
1.001,   1.387e-4
1.002,   1.376e-4
1.003,   1.382e-4
1.004,   1.378e-4
1.005,   1.369e-4
1.006,   1.377e-4
1.007,   1.380e-4
1.008,   1.378e-4
1.009,   1.375e-4
1.010,   1.381e-4
1.011,   1.385e-4
1.012,   1.366e-4
1.013,   1.360e-4
1.014,   1.377e-4
1.015,   1.389e-4
1.016,   1.373e-4
1.017,   1.368e-4
1.018,   1.378e-4
1.019,   1.363e-4
1.020,   1.366e-4
1.021,   1.380e-4
1.022,   1.379e-4
1.023,   1.379e-4
1.024,   1.374e-4
1.025,   1.370e-4
1.026,   1.372e-4
1.027,   1.372e-4
1.028,   1.381e-4
1.029,   1.376e-4
1.030,   1.385e-4
1.031,   1.370e-4
1.032,   1.375e-4
1.033,   1.370e-4
1.034,   1.379e-4
1.035,   1.381e-4
1.036,   1.371e-4
1.037,   1.376e-4
1.038,   1.389e-4
1.039,   1.381e-4
1.040,   1.379e-4
1.041,   1.386e-4
1.042,   1.382e-4
1.043,   1.378e-4
1.044,   1.379e-4
1.045,   1.377e-4
1.046,   1.386e-4
1.047,   1.378e-4
1.048,   1.377e-4
1.049,   1.392e-4
1.050,   1.384e-4
1.051,   1.382e-4
1.052,   1.387e-4
1.053,   1.387e-4
1.054,   1.380e-4
1.055,   1.394e-4
1.056,   1.388e-4
1.057,   1.390e-4
1.058,   1.380e-4
1.059,   1.385e-4
1.060,   1.392e-4
1.061,   1.418e-4
1.062,   1.402e-4
1.063,   1.385e-4
1.064,   1.387e-4
1.065,   1.395e-4
1.066,   1.392e-4
1.067,   1.407e-4
1.068,   1.410e-4
1.069,   1.399e-4
1.070,   1.401e-4
1.071,   1.407e-4
1.072,   1.415e-4
1.073,   1.407e-4
1.074,   1.418e-4
1.075,   1.409e-4
1.076,   1.397e-4
1.077,   1.427e-4
1.078,   1.405e-4
1.079,   1.410e-4
1.080,   1.416e-4
1.081,   1.424e-4
1.082,   1.431e-4
1.083,   1.413e-4
1.084,   1.414e-4
1.085,   1.406e-4
1.086,   1.433e-4
1.087,   1.425e-4
1.088,   1.435e-4
1.089,   1.436e-4
1.090,   1.432e-4
1.091,   1.430e-4
1.092,   1.427e-4
1.093,   1.428e-4
1.094,   1.439e-4
1.095,   1.460e-4
1.096,   1.423e-4
1.097,   1.446e-4
1.098,   1.434e-4
1.099,   1.440e-4
1.100,   1.441e-4
1.101,   1.474e-4
1.102,   1.460e-4
1.103,   1.435e-4
1.104,   1.461e-4
1.105,   1.443e-4
1.106,   1.450e-4
1.107,   1.461e-4
1.108,   1.491e-4
1.109,   1.472e-4
1.110,   1.438e-4
1.111,   1.458e-4
1.112,   1.475e-4
1.113,   1.470e-4
1.114,   1.470e-4
1.115,   1.505e-4
1.116,   1.453e-4
1.117,   1.461e-4
1.118,   1.477e-4
1.119,   1.490e-4
1.120,   1.491e-4
1.121,   1.514e-4
1.122,   1.491e-4
1.123,   1.465e-4
1.124,   1.475e-4
1.125,   1.496e-4
1.126,   1.504e-4
1.127,   1.500e-4
1.128,   1.537e-4
1.129,   1.500e-4
1.130,   1.473e-4
1.131,   1.507e-4
1.132,   1.531e-4
1.133,   1.515e-4
1.134,   1.536e-4
1.135,   1.548e-4
1.136,   1.494e-4
1.137,   1.506e-4
1.138,   1.521e-4
1.139,   1.533e-4
1.140,   1.506e-4
1.141,   1.561e-4
1.142,   1.548e-4
1.143,   1.501e-4
1.144,   1.524e-4
1.145,   1.549e-4
1.146,   1.537e-4
1.147,   1.550e-4
1.148,   1.588e-4
1.149,   1.546e-4
1.150,   1.520e-4
1.151,   1.555e-4
1.152,   1.565e-4
1.153,   1.564e-4
1.154,   1.589e-4
1.155,   1.600e-4
1.156,   1.539e-4
1.157,   1.531e-4
1.158,   1.574e-4
1.159,   1.572e-4
1.160,   1.573e-4
1.161,   1.623e-4
1.162,   1.612e-4
1.163,   1.536e-4
1.164,   1.581e-4
1.165,   1.589e-4
1.166,   1.587e-4
1.167,   1.604e-4
1.168,   1.655e-4
1.169,   1.600e-4
1.170,   1.567e-4
1.171,   1.611e-4
1.172,   1.602e-4
1.173,   1.587e-4
1.174,   1.640e-4
1.175,   1.661e-4
1.176,   1.600e-4
1.177,   1.600e-4
1.178,   1.608e-4
1.179,   1.618e-4
1.180,   1.625e-4
1.181,   1.685e-4
1.182,   1.658e-4
1.183,   1.604e-4
1.184,   1.614e-4
1.185,   1.643e-4
1.186,   1.636e-4
1.187,   1.656e-4
1.188,   1.711e-4
1.189,   1.640e-4
1.190,   1.632e-4
1.191,   1.668e-4
1.192,   1.629e-4
1.193,   1.662e-4
1.194,   1.703e-4
1.195,   1.710e-4
1.196,   1.649e-4
1.197,   1.660e-4
1.198,   1.666e-4
1.199,   1.664e-4
1.200,   1.689e-4
1.201,   1.742e-4
1.202,   1.696e-4
1.203,   1.662e-4
1.204,   1.672e-4
1.205,   1.689e-4
1.206,   1.698e-4
1.207,   1.714e-4
1.208,   1.754e-4
1.209,   1.703e-4
1.210,   1.666e-4
1.211,   1.708e-4
1.212,   1.735e-4
1.213,   1.713e-4
1.214,   1.753e-4
1.215,   1.775e-4
1.216,   1.683e-4
1.217,   1.706e-4
1.218,   1.741e-4
1.219,   1.737e-4
1.220,   1.739e-4
1.221,   1.783e-4
1.222,   1.755e-4
1.223,   1.698e-4
1.224,   1.711e-4
1.225,   1.766e-4
1.226,   1.750e-4
1.227,   1.775e-4
1.228,   1.818e-4
1.229,   1.757e-4
1.230,   1.731e-4
1.231,   1.764e-4
1.232,   1.762e-4
1.233,   1.767e-4
1.234,   1.811e-4
1.235,   1.815e-4
1.236,   1.755e-4
1.237,   1.743e-4
1.238,   1.786e-4
1.239,   1.787e-4
1.240,   1.800e-4
1.241,   1.835e-4
1.242,   1.830e-4
1.243,   1.763e-4
1.244,   1.767e-4
1.245,   1.809e-4
1.246,   1.804e-4
1.247,   1.828e-4
1.248,   1.857e-4
1.249,   1.810e-4
1.250,   1.775e-4
1.251,   1.813e-4
1.252,   1.827e-4
1.253,   1.823e-4
1.254,   1.868e-4
1.255,   1.851e-4
1.256,   1.802e-4
1.257,   1.811e-4
1.258,   1.834e-4
1.259,   1.845e-4
1.260,   1.869e-4
1.261,   1.882e-4
1.262,   1.871e-4
1.263,   1.827e-4
1.264,   1.834e-4
1.265,   1.852e-4
1.266,   1.856e-4
1.267,   1.884e-4
1.268,   1.923e-4
1.269,   1.881e-4
1.270,   1.837e-4
1.271,   1.864e-4
1.272,   1.888e-4
1.273,   1.883e-4
1.274,   1.927e-4
1.275,   1.917e-4
1.276,   1.861e-4
1.277,   1.850e-4
1.278,   1.897e-4
1.279,   1.903e-4
1.280,   1.921e-4
1.281,   1.955e-4
1.282,   1.924e-4
1.283,   1.877e-4
1.284,   1.895e-4
1.285,   1.930e-4
1.286,   1.941e-4
1.287,   1.944e-4
1.288,   1.969e-4
1.289,   1.917e-4
1.290,   1.893e-4
1.291,   1.943e-4
1.292,   1.953e-4
1.293,   1.977e-4
1.294,   1.988e-4
1.295,   1.988e-4
1.296,   1.920e-4
1.297,   1.922e-4
1.298,   1.974e-4
1.299,   1.985e-4
1.300,   1.978e-4
1.301,   2.024e-4
1.302,   1.983e-4
1.303,   1.956e-4
1.304,   1.962e-4
1.305,   2.013e-4
1.306,   2.036e-4
1.307,   2.017e-4
1.308,   2.041e-4
1.309,   1.982e-4
1.310,   1.995e-4
1.311,   1.996e-4
1.312,   2.037e-4
1.313,   2.060e-4
1.314,   2.071e-4
1.315,   2.061e-4
1.316,   2.007e-4
1.317,   2.025e-4
1.318,   2.080e-4
1.319,   2.056e-4
1.320,   2.114e-4
1.321,   2.092e-4
1.322,   2.059e-4
1.323,   2.042e-4
1.324,   2.087e-4
1.325,   2.122e-4
1.326,   2.112e-4
1.327,   2.121e-4
1.328,   2.157e-4
1.329,   2.100e-4
1.330,   2.067e-4
1.331,   2.123e-4
1.332,   2.157e-4
1.333,   2.150e-4
1.334,   2.188e-4
1.335,   2.163e-4
1.336,   2.118e-4
1.337,   2.156e-4
1.338,   2.188e-4
1.339,   2.188e-4
1.340,   2.201e-4
1.341,   2.242e-4
1.342,   2.191e-4
1.343,   2.161e-4
1.344,   2.207e-4
1.345,   2.242e-4
1.346,   2.237e-4
1.347,   2.271e-4
1.348,   2.274e-4
1.349,   2.212e-4
1.350,   2.249e-4
1.351,   2.285e-4
1.352,   2.285e-4
1.353,   2.298e-4
1.354,   2.335e-4
1.355,   2.330e-4
1.356,   2.270e-4
1.357,   2.323e-4
1.358,   2.334e-4
1.359,   2.350e-4
1.360,   2.371e-4
1.361,   2.425e-4
1.362,   2.352e-4
1.363,   2.333e-4
1.364,   2.385e-4
1.365,   2.403e-4
1.366,   2.429e-4
1.367,   2.457e-4
1.368,   2.483e-4
1.369,   2.422e-4
1.370,   2.445e-4
1.371,   2.482e-4
1.372,   2.493e-4
1.373,   2.513e-4
1.374,   2.569e-4
1.375,   2.541e-4
1.376,   2.489e-4
1.377,   2.530e-4
1.378,   2.575e-4
1.379,   2.587e-4
1.380,   2.635e-4
1.381,   2.667e-4
1.382,   2.621e-4
1.383,   2.588e-4
1.384,   2.652e-4
1.385,   2.684e-4
1.386,   2.702e-4
1.387,   2.753e-4
1.388,   2.798e-4
1.389,   2.734e-4
1.390,   2.754e-4
1.391,   2.803e-4
1.392,   2.830e-4
1.393,   2.863e-4
1.394,   2.943e-4
1.395,   2.940e-4
1.396,   2.887e-4
1.397,   2.928e-4
1.398,   2.995e-4
1.399,   3.046e-4
1.400,   3.096e-4
1.401,   3.144e-4
1.402,   3.158e-4
1.403,   3.130e-4
1.404,   3.176e-4
1.405,   3.256e-4
1.406,   3.332e-4
1.407,   3.383e-4
1.408,   3.472e-4
1.409,   3.447e-4
1.410,   3.446e-4
1.411,   3.578e-4
1.412,   3.657e-4
1.413,   3.739e-4
1.414,   3.848e-4
1.415,   3.901e-4
1.416,   3.899e-4
1.417,   3.972e-4
1.418,   4.135e-4
1.419,   4.253e-4
1.420,   4.352e-4
1.421,   4.476e-4
1.422,   4.558e-4
1.423,   4.611e-4
1.424,   4.776e-4
1.425,   4.964e-4
1.426,   5.086e-4
1.427,   5.332e-4
1.428,   5.579e-4
1.429,   5.613e-4
1.430,   5.726e-4
1.431,   6.010e-4
1.432,   6.248e-4
1.433,   6.485e-4
1.434,   6.865e-4
1.435,   7.088e-4
1.436,   7.214e-4
1.437,   7.515e-4
1.438,   7.891e-4
1.439,   8.181e-4
1.440,   8.633e-4
1.441,   9.085e-4
1.442,   9.459e-4
1.443,   9.619e-4
1.444,   1.008e-3
1.445,   1.068e-3
1.446,   1.116e-3
1.447,   1.179e-3
1.448,   1.256e-3
1.449,   1.284e-3
1.450,   1.322e-3
1.451,   1.414e-3
1.452,   1.495e-3
1.453,   1.558e-3
1.454,   1.653e-3
1.455,   1.756e-3
1.456,   1.780e-3
1.457,   1.847e-3
1.458,   1.959e-3
1.459,   2.055e-3
1.460,   2.180e-3
1.461,   2.333e-3
1.462,   2.439e-3
1.463,   2.463e-3
1.464,   2.587e-3
1.465,   2.747e-3
1.466,   2.872e-3
1.467,   3.057e-3
1.468,   3.285e-3
1.469,   3.361e-3
1.470,   3.428e-3
1.471,   3.599e-3
1.472,   3.783e-3
1.473,   3.993e-3
1.474,   4.305e-3
1.475,   4.530e-3
1.476,   4.564e-3
1.477,   4.724e-3
1.478,   4.977e-3
1.479,   5.216e-3
1.480,   5.445e-3
1.481,   5.752e-3
1.482,   5.985e-3
1.483,   6.036e-3
1.484,   6.256e-3
1.485,   6.546e-3
1.486,   6.815e-3
1.487,   7.159e-3
1.488,   7.459e-3
1.489,   7.520e-3
1.490,   7.748e-3
1.491,   8.053e-3
1.492,   8.409e-3
1.493,   8.751e-3
1.494,   9.138e-3
1.495,   9.336e-3
1.496,   9.526e-3
1.497,   9.784e-3
1.498,   9.975e-3
1.499,   1.001e-2
1.500,   1.007e-2
1.501,   1.006e-2
1.502,   1.007e-2
1.503,   1.007e-2
1.504,   1.007e-2
1.505,   1.007e-2
1.506,   1.007e-2
1.507,   1.007e-2
1.508,   1.007e-2
1.509,   1.007e-2
1.510,   1.007e-2
1.511,   1.007e-2
1.512,   1.007e-2
1.513,   1.007e-2
1.514,   1.007e-2
1.515,   1.007e-2
1.516,   1.007e-2
1.517,   1.007e-2
1.518,   1.007e-2
1.519,   1.007e-2
1.520,   1.007e-2
1.521,   1.007e-2
1.522,   1.007e-2
1.523,   1.007e-2
1.524,   1.007e-2
1.525,   1.007e-2
1.526,   1.007e-2
1.527,   1.007e-2
1.528,   1.007e-2