File: Experimental Records, Raw Data, and Supplementary Notes and Figures/batch5/final400/B5_BEST_400_#1_High_Quality(#20)-214mV.txt
May 30, 2023   20:07:09
Linear Sweep Voltammetry
File: d:\current work\al_oer\electrochemical test data\batch 5\400\B5_BEST_400_#1_High_Quality(#20)-214mV.txt
Data Source:  Experiment
Instrument Model:  CHI660E
Header:
Note:

Init E (V) = 0.900

Final E (V) = 1.531

Scan Rate (V/s) = 0.010
Sample Interval (V) = 0.001
Quiet Time (sec) = 2
Sensitivity (A/V) = 0.001
Comp R (ohm) = 6.8

Results:

Channel 1:

Potential/V, Current/A
0.900,   1.253e-3
0.901,   1.223e-3
0.902,   1.163e-3
0.903,   1.113e-3
0.904,   1.065e-3
0.905,   1.013e-3
0.906,   9.735e-4
0.907,   9.340e-4
0.908,   8.962e-4
0.909,   8.622e-4
0.910,   8.371e-4
0.911,   8.025e-4
0.912,   7.726e-4
0.913,   7.492e-4
0.914,   7.241e-4
0.915,   7.014e-4
0.916,   6.805e-4
0.917,   6.644e-4
0.918,   6.431e-4
0.919,   6.288e-4
0.920,   6.130e-4
0.921,   5.958e-4
0.922,   5.849e-4
0.923,   5.723e-4
0.924,   5.567e-4
0.925,   5.466e-4
0.926,   5.351e-4
0.927,   5.232e-4
0.928,   5.155e-4
0.929,   5.083e-4
0.930,   4.968e-4
0.931,   4.902e-4
0.932,   4.808e-4
0.933,   4.731e-4
0.934,   4.667e-4
0.935,   4.610e-4
0.936,   4.536e-4
0.937,   4.472e-4
0.938,   4.430e-4
0.939,   4.383e-4
0.940,   4.313e-4
0.941,   4.282e-4
0.942,   4.236e-4
0.943,   4.158e-4
0.944,   4.138e-4
0.945,   4.101e-4
0.946,   4.056e-4
0.947,   4.016e-4
0.948,   3.981e-4
0.949,   3.930e-4
0.950,   3.919e-4
0.951,   3.878e-4
0.952,   3.842e-4
0.953,   3.835e-4
0.954,   3.790e-4
0.955,   3.747e-4
0.956,   3.740e-4
0.957,   3.722e-4
0.958,   3.683e-4
0.959,   3.670e-4
0.960,   3.638e-4
0.961,   3.621e-4
0.962,   3.600e-4
0.963,   3.593e-4
0.964,   3.547e-4
0.965,   3.539e-4
0.966,   3.544e-4
0.967,   3.511e-4
0.968,   3.477e-4
0.969,   3.496e-4
0.970,   3.477e-4
0.971,   3.449e-4
0.972,   3.437e-4
0.973,   3.424e-4
0.974,   3.402e-4
0.975,   3.401e-4
0.976,   3.387e-4
0.977,   3.364e-4
0.978,   3.365e-4
0.979,   3.352e-4
0.980,   3.325e-4
0.981,   3.327e-4
0.982,   3.316e-4
0.983,   3.294e-4
0.984,   3.289e-4
0.985,   3.312e-4
0.986,   3.267e-4
0.987,   3.264e-4
0.988,   3.279e-4
0.989,   3.257e-4
0.990,   3.262e-4
0.991,   3.252e-4
0.992,   3.229e-4
0.993,   3.226e-4
0.994,   3.238e-4
0.995,   3.216e-4
0.996,   3.201e-4
0.997,   3.213e-4
0.998,   3.213e-4
0.999,   3.180e-4
1.000,   3.205e-4
1.001,   3.201e-4
1.002,   3.174e-4
1.003,   3.179e-4
1.004,   3.187e-4
1.005,   3.160e-4
1.006,   3.159e-4
1.007,   3.159e-4
1.008,   3.154e-4
1.009,   3.154e-4
1.010,   3.154e-4
1.011,   3.132e-4
1.012,   3.136e-4
1.013,   3.162e-4
1.014,   3.134e-4
1.015,   3.129e-4
1.016,   3.148e-4
1.017,   3.142e-4
1.018,   3.126e-4
1.019,   3.136e-4
1.020,   3.133e-4
1.021,   3.118e-4
1.022,   3.121e-4
1.023,   3.130e-4
1.024,   3.136e-4
1.025,   3.152e-4
1.026,   3.131e-4
1.027,   3.107e-4
1.028,   3.129e-4
1.029,   3.135e-4
1.030,   3.109e-4
1.031,   3.117e-4
1.032,   3.120e-4
1.033,   3.115e-4
1.034,   3.099e-4
1.035,   3.106e-4
1.036,   3.102e-4
1.037,   3.101e-4
1.038,   3.109e-4
1.039,   3.107e-4
1.040,   3.104e-4
1.041,   3.119e-4
1.042,   3.117e-4
1.043,   3.115e-4
1.044,   3.131e-4
1.045,   3.118e-4
1.046,   3.112e-4
1.047,   3.118e-4
1.048,   3.128e-4
1.049,   3.113e-4
1.050,   3.120e-4
1.051,   3.112e-4
1.052,   3.110e-4
1.053,   3.130e-4
1.054,   3.108e-4
1.055,   3.118e-4
1.056,   3.131e-4
1.057,   3.147e-4
1.058,   3.115e-4
1.059,   3.128e-4
1.060,   3.149e-4
1.061,   3.137e-4
1.062,   3.134e-4
1.063,   3.183e-4
1.064,   3.152e-4
1.065,   3.135e-4
1.066,   3.166e-4
1.067,   3.158e-4
1.068,   3.164e-4
1.069,   3.177e-4
1.070,   3.174e-4
1.071,   3.161e-4
1.072,   3.188e-4
1.073,   3.184e-4
1.074,   3.191e-4
1.075,   3.202e-4
1.076,   3.196e-4
1.077,   3.177e-4
1.078,   3.208e-4
1.079,   3.217e-4
1.080,   3.187e-4
1.081,   3.212e-4
1.082,   3.224e-4
1.083,   3.214e-4
1.084,   3.230e-4
1.085,   3.241e-4
1.086,   3.230e-4
1.087,   3.234e-4
1.088,   3.246e-4
1.089,   3.243e-4
1.090,   3.259e-4
1.091,   3.291e-4
1.092,   3.272e-4
1.093,   3.263e-4
1.094,   3.299e-4
1.095,   3.290e-4
1.096,   3.286e-4
1.097,   3.305e-4
1.098,   3.308e-4
1.099,   3.306e-4
1.100,   3.319e-4
1.101,   3.303e-4
1.102,   3.310e-4
1.103,   3.328e-4
1.104,   3.318e-4
1.105,   3.328e-4
1.106,   3.330e-4
1.107,   3.341e-4
1.108,   3.334e-4
1.109,   3.337e-4
1.110,   3.358e-4
1.111,   3.357e-4
1.112,   3.350e-4
1.113,   3.371e-4
1.114,   3.373e-4
1.115,   3.354e-4
1.116,   3.368e-4
1.117,   3.371e-4
1.118,   3.368e-4
1.119,   3.385e-4
1.120,   3.376e-4
1.121,   3.378e-4
1.122,   3.424e-4
1.123,   3.406e-4
1.124,   3.390e-4
1.125,   3.401e-4
1.126,   3.376e-4
1.127,   3.379e-4
1.128,   3.405e-4
1.129,   3.402e-4
1.130,   3.421e-4
1.131,   3.429e-4
1.132,   3.425e-4
1.133,   3.416e-4
1.134,   3.423e-4
1.135,   3.427e-4
1.136,   3.421e-4
1.137,   3.415e-4
1.138,   3.428e-4
1.139,   3.427e-4
1.140,   3.430e-4
1.141,   3.457e-4
1.142,   3.453e-4
1.143,   3.451e-4
1.144,   3.466e-4
1.145,   3.450e-4
1.146,   3.462e-4
1.147,   3.477e-4
1.148,   3.489e-4
1.149,   3.470e-4
1.150,   3.486e-4
1.151,   3.477e-4
1.152,   3.494e-4
1.153,   3.506e-4
1.154,   3.503e-4
1.155,   3.518e-4
1.156,   3.521e-4
1.157,   3.518e-4
1.158,   3.535e-4
1.159,   3.548e-4
1.160,   3.532e-4
1.161,   3.538e-4
1.162,   3.559e-4
1.163,   3.565e-4
1.164,   3.563e-4
1.165,   3.593e-4
1.166,   3.586e-4
1.167,   3.587e-4
1.168,   3.593e-4
1.169,   3.602e-4
1.170,   3.607e-4
1.171,   3.599e-4
1.172,   3.633e-4
1.173,   3.610e-4
1.174,   3.630e-4
1.175,   3.640e-4
1.176,   3.636e-4
1.177,   3.669e-4
1.178,   3.684e-4
1.179,   3.667e-4
1.180,   3.670e-4
1.181,   3.695e-4
1.182,   3.681e-4
1.183,   3.678e-4
1.184,   3.693e-4
1.185,   3.714e-4
1.186,   3.708e-4
1.187,   3.736e-4
1.188,   3.722e-4
1.189,   3.733e-4
1.190,   3.748e-4
1.191,   3.771e-4
1.192,   3.762e-4
1.193,   3.771e-4
1.194,   3.796e-4
1.195,   3.782e-4
1.196,   3.799e-4
1.197,   3.833e-4
1.198,   3.821e-4
1.199,   3.823e-4
1.200,   3.861e-4
1.201,   3.854e-4
1.202,   3.856e-4
1.203,   3.881e-4
1.204,   3.883e-4
1.205,   3.892e-4
1.206,   3.917e-4
1.207,   3.913e-4
1.208,   3.924e-4
1.209,   3.956e-4
1.210,   3.951e-4
1.211,   3.950e-4
1.212,   3.975e-4
1.213,   3.983e-4
1.214,   3.999e-4
1.215,   4.013e-4
1.216,   4.011e-4
1.217,   3.999e-4
1.218,   4.015e-4
1.219,   4.034e-4
1.220,   4.036e-4
1.221,   4.048e-4
1.222,   4.074e-4
1.223,   4.070e-4
1.224,   4.081e-4
1.225,   4.106e-4
1.226,   4.106e-4
1.227,   4.127e-4
1.228,   4.160e-4
1.229,   4.153e-4
1.230,   4.173e-4
1.231,   4.187e-4
1.232,   4.168e-4
1.233,   4.174e-4
1.234,   4.217e-4
1.235,   4.219e-4
1.236,   4.231e-4
1.237,   4.257e-4
1.238,   4.254e-4
1.239,   4.268e-4
1.240,   4.280e-4
1.241,   4.294e-4
1.242,   4.295e-4
1.243,   4.327e-4
1.244,   4.336e-4
1.245,   4.343e-4
1.246,   4.344e-4
1.247,   4.390e-4
1.248,   4.367e-4
1.249,   4.399e-4
1.250,   4.438e-4
1.251,   4.424e-4
1.252,   4.423e-4
1.253,   4.454e-4
1.254,   4.438e-4
1.255,   4.442e-4
1.256,   4.487e-4
1.257,   4.479e-4
1.258,   4.495e-4
1.259,   4.512e-4
1.260,   4.526e-4
1.261,   4.551e-4
1.262,   4.561e-4
1.263,   4.560e-4
1.264,   4.573e-4
1.265,   4.598e-4
1.266,   4.608e-4
1.267,   4.609e-4
1.268,   4.634e-4
1.269,   4.666e-4
1.270,   4.633e-4
1.271,   4.665e-4
1.272,   4.696e-4
1.273,   4.713e-4
1.274,   4.736e-4
1.275,   4.753e-4
1.276,   4.742e-4
1.277,   4.746e-4
1.278,   4.774e-4
1.279,   4.766e-4
1.280,   4.793e-4
1.281,   4.809e-4
1.282,   4.822e-4
1.283,   4.840e-4
1.284,   4.877e-4
1.285,   4.882e-4
1.286,   4.874e-4
1.287,   4.906e-4
1.288,   4.928e-4
1.289,   4.904e-4
1.290,   4.914e-4
1.291,   4.962e-4
1.292,   4.959e-4
1.293,   4.989e-4
1.294,   5.005e-4
1.295,   4.994e-4
1.296,   5.007e-4
1.297,   5.052e-4
1.298,   5.050e-4
1.299,   5.067e-4
1.300,   5.108e-4
1.301,   5.101e-4
1.302,   5.103e-4
1.303,   5.184e-4
1.304,   5.147e-4
1.305,   5.141e-4
1.306,   5.193e-4
1.307,   5.198e-4
1.308,   5.209e-4
1.309,   5.231e-4
1.310,   5.271e-4
1.311,   5.271e-4
1.312,   5.268e-4
1.313,   5.308e-4
1.314,   5.322e-4
1.315,   5.328e-4
1.316,   5.389e-4
1.317,   5.375e-4
1.318,   5.388e-4
1.319,   5.476e-4
1.320,   5.439e-4
1.321,   5.434e-4
1.322,   5.527e-4
1.323,   5.482e-4
1.324,   5.504e-4
1.325,   5.581e-4
1.326,   5.567e-4
1.327,   5.568e-4
1.328,   5.655e-4
1.329,   5.677e-4
1.330,   5.680e-4
1.331,   5.741e-4
1.332,   5.742e-4
1.333,   5.738e-4
1.334,   5.749e-4
1.335,   5.798e-4
1.336,   5.793e-4
1.337,   5.844e-4
1.338,   5.895e-4
1.339,   5.874e-4
1.340,   5.916e-4
1.341,   5.956e-4
1.342,   5.959e-4
1.343,   5.995e-4
1.344,   6.072e-4
1.345,   6.075e-4
1.346,   6.095e-4
1.347,   6.134e-4
1.348,   6.152e-4
1.349,   6.155e-4
1.350,   6.219e-4
1.351,   6.232e-4
1.352,   6.247e-4
1.353,   6.314e-4
1.354,   6.332e-4
1.355,   6.338e-4
1.356,   6.409e-4
1.357,   6.438e-4
1.358,   6.456e-4
1.359,   6.549e-4
1.360,   6.557e-4
1.361,   6.564e-4
1.362,   6.618e-4
1.363,   6.679e-4
1.364,   6.677e-4
1.365,   6.718e-4
1.366,   6.781e-4
1.367,   6.782e-4
1.368,   6.831e-4
1.369,   6.904e-4
1.370,   6.892e-4
1.371,   6.942e-4
1.372,   7.038e-4
1.373,   7.037e-4
1.374,   7.081e-4
1.375,   7.176e-4
1.376,   7.196e-4
1.377,   7.192e-4
1.378,   7.305e-4
1.379,   7.331e-4
1.380,   7.342e-4
1.381,   7.417e-4
1.382,   7.455e-4
1.383,   7.506e-4
1.384,   7.591e-4
1.385,   7.623e-4
1.386,   7.676e-4
1.387,   7.751e-4
1.388,   7.819e-4
1.389,   7.822e-4
1.390,   7.913e-4
1.391,   8.031e-4
1.392,   7.986e-4
1.393,   8.094e-4
1.394,   8.215e-4
1.395,   8.219e-4
1.396,   8.313e-4
1.397,   8.425e-4
1.398,   8.473e-4
1.399,   8.524e-4
1.400,   8.679e-4
1.401,   8.700e-4
1.402,   8.761e-4
1.403,   8.892e-4
1.404,   8.979e-4
1.405,   9.058e-4
1.406,   9.207e-4
1.407,   9.288e-4
1.408,   9.367e-4
1.409,   9.504e-4
1.410,   9.626e-4
1.411,   9.687e-4
1.412,   9.855e-4
1.413,   1.002e-3
1.414,   1.007e-3
1.415,   1.022e-3
1.416,   1.044e-3
1.417,   1.055e-3
1.418,   1.068e-3
1.419,   1.098e-3
1.420,   1.109e-3
1.421,   1.128e-3
1.422,   1.155e-3
1.423,   1.166e-3
1.424,   1.190e-3
1.425,   1.223e-3
1.426,   1.240e-3
1.427,   1.264e-3
1.428,   1.298e-3
1.429,   1.318e-3
1.430,   1.347e-3
1.431,   1.380e-3
1.432,   1.410e-3
1.433,   1.441e-3
1.434,   1.480e-3
1.435,   1.521e-3
1.436,   1.553e-3
1.437,   1.593e-3
1.438,   1.632e-3
1.439,   1.663e-3
1.440,   1.706e-3
1.441,   1.760e-3
1.442,   1.798e-3
1.443,   1.853e-3
1.444,   1.926e-3
1.445,   1.966e-3
1.446,   2.019e-3
1.447,   2.095e-3
1.448,   2.137e-3
1.449,   2.195e-3
1.450,   2.286e-3
1.451,   2.343e-3
1.452,   2.404e-3
1.453,   2.492e-3
1.454,   2.549e-3
1.455,   2.615e-3
1.456,   2.715e-3
1.457,   2.783e-3
1.458,   2.857e-3
1.459,   2.962e-3
1.460,   3.051e-3
1.461,   3.111e-3
1.462,   3.222e-3
1.463,   3.327e-3
1.464,   3.383e-3
1.465,   3.512e-3
1.466,   3.626e-3
1.467,   3.698e-3
1.468,   3.825e-3
1.469,   3.949e-3
1.470,   4.017e-3
1.471,   4.130e-3
1.472,   4.293e-3
1.473,   4.363e-3
1.474,   4.486e-3
1.475,   4.639e-3
1.476,   4.744e-3
1.477,   4.854e-3
1.478,   5.024e-3
1.479,   5.130e-3
1.480,   5.234e-3
1.481,   5.403e-3
1.482,   5.499e-3
1.483,   5.628e-3
1.484,   5.815e-3
1.485,   5.943e-3
1.486,   6.040e-3
1.487,   6.256e-3
1.488,   6.392e-3
1.489,   6.487e-3
1.490,   6.699e-3
1.491,   6.866e-3
1.492,   6.956e-3
1.493,   7.140e-3
1.494,   7.326e-3
1.495,   7.424e-3
1.496,   7.610e-3
1.497,   7.835e-3
1.498,   7.939e-3
1.499,   8.149e-3
1.500,   8.310e-3
1.501,   8.415e-3
1.502,   8.609e-3
1.503,   8.853e-3
1.504,   8.931e-3
1.505,   9.080e-3
1.506,   9.334e-3
1.507,   9.481e-3
1.508,   9.541e-3
1.509,   9.752e-3
1.510,   9.825e-3
1.511,   9.865e-3
1.512,   9.974e-3
1.513,   1.003e-2
1.514,   1.005e-2
1.515,   1.006e-2
1.516,   1.007e-2
1.517,   1.007e-2
1.518,   1.007e-2
1.519,   1.007e-2
1.520,   1.007e-2
1.521,   1.007e-2
1.522,   1.007e-2
1.523,   1.007e-2
1.524,   1.007e-2
1.525,   1.007e-2
1.526,   1.007e-2
1.527,   1.007e-2
1.528,   1.007e-2
1.529,   1.007e-2
1.530,   1.007e-2
1.531,   1.007e-2