File: Experimental Records, Raw Data, and Supplementary Notes and Figures/batch5/final400/B5_BEST_400_#1_High_Quality(#27)-240mV.txt
May 31, 2023   15:11:37
Linear Sweep Voltammetry
File: d:\current work\al_oer\electrochemical test data\batch 5\400\B5_BEST_400_#1_High_Quality(#27)-240mV.txt
Data Source:  Experiment
Instrument Model:  CHI660E
Header:
Note:

Init E (V) = 0.903

Final E (V) = 1.537

Scan Rate (V/s) = 0.010
Sample Interval (V) = 0.001
Quiet Time (sec) = 2
Sensitivity (A/V) = 0.001
Comp R (ohm) = 6.4

Results:

Channel 1:

Potential/V, Current/A
0.903,   2.507e-4
0.904,   2.678e-4
0.905,   2.681e-4
0.906,   2.729e-4
0.907,   2.739e-4
0.908,   2.716e-4
0.909,   2.655e-4
0.910,   2.645e-4
0.911,   2.660e-4
0.912,   2.673e-4
0.913,   2.594e-4
0.914,   2.558e-4
0.915,   2.555e-4
0.916,   2.575e-4
0.917,   2.571e-4
0.918,   2.492e-4
0.919,   2.468e-4
0.920,   2.470e-4
0.921,   2.509e-4
0.922,   2.460e-4
0.923,   2.401e-4
0.924,   2.400e-4
0.925,   2.414e-4
0.926,   2.412e-4
0.927,   2.349e-4
0.928,   2.334e-4
0.929,   2.324e-4
0.930,   2.353e-4
0.931,   2.329e-4
0.932,   2.267e-4
0.933,   2.259e-4
0.934,   2.278e-4
0.935,   2.291e-4
0.936,   2.235e-4
0.937,   2.204e-4
0.938,   2.219e-4
0.939,   2.233e-4
0.940,   2.221e-4
0.941,   2.161e-4
0.942,   2.157e-4
0.943,   2.169e-4
0.944,   2.190e-4
0.945,   2.146e-4
0.946,   2.110e-4
0.947,   2.115e-4
0.948,   2.126e-4
0.949,   2.137e-4
0.950,   2.082e-4
0.951,   2.065e-4
0.952,   2.076e-4
0.953,   2.100e-4
0.954,   2.081e-4
0.955,   2.033e-4
0.956,   2.024e-4
0.957,   2.049e-4
0.958,   2.070e-4
0.959,   2.021e-4
0.960,   1.996e-4
0.961,   2.006e-4
0.962,   2.019e-4
0.963,   2.020e-4
0.964,   1.974e-4
0.965,   1.959e-4
0.966,   1.979e-4
0.967,   2.003e-4
0.968,   1.967e-4
0.969,   1.943e-4
0.970,   1.935e-4
0.971,   1.955e-4
0.972,   1.970e-4
0.973,   1.926e-4
0.974,   1.910e-4
0.975,   1.922e-4
0.976,   1.940e-4
0.977,   1.927e-4
0.978,   1.887e-4
0.979,   1.879e-4
0.980,   1.899e-4
0.981,   1.927e-4
0.982,   1.885e-4
0.983,   1.871e-4
0.984,   1.866e-4
0.985,   1.886e-4
0.986,   1.897e-4
0.987,   1.849e-4
0.988,   1.844e-4
0.989,   1.864e-4
0.990,   1.890e-4
0.991,   1.847e-4
0.992,   1.825e-4
0.993,   1.829e-4
0.994,   1.850e-4
0.995,   1.867e-4
0.996,   1.816e-4
0.997,   1.804e-4
0.998,   1.828e-4
0.999,   1.857e-4
1.000,   1.828e-4
1.001,   1.797e-4
1.002,   1.813e-4
1.003,   1.819e-4
1.004,   1.833e-4
1.005,   1.786e-4
1.006,   1.783e-4
1.007,   1.790e-4
1.008,   1.815e-4
1.009,   1.810e-4
1.010,   1.766e-4
1.011,   1.771e-4
1.012,   1.779e-4
1.013,   1.808e-4
1.014,   1.781e-4
1.015,   1.764e-4
1.016,   1.764e-4
1.017,   1.784e-4
1.018,   1.796e-4
1.019,   1.754e-4
1.020,   1.762e-4
1.021,   1.759e-4
1.022,   1.792e-4
1.023,   1.771e-4
1.024,   1.749e-4
1.025,   1.748e-4
1.026,   1.763e-4
1.027,   1.781e-4
1.028,   1.745e-4
1.029,   1.740e-4
1.030,   1.746e-4
1.031,   1.768e-4
1.032,   1.764e-4
1.033,   1.727e-4
1.034,   1.741e-4
1.035,   1.754e-4
1.036,   1.767e-4
1.037,   1.748e-4
1.038,   1.723e-4
1.039,   1.737e-4
1.040,   1.756e-4
1.041,   1.760e-4
1.042,   1.730e-4
1.043,   1.733e-4
1.044,   1.735e-4
1.045,   1.757e-4
1.046,   1.744e-4
1.047,   1.714e-4
1.048,   1.730e-4
1.049,   1.748e-4
1.050,   1.764e-4
1.051,   1.731e-4
1.052,   1.715e-4
1.053,   1.730e-4
1.054,   1.758e-4
1.055,   1.749e-4
1.056,   1.719e-4
1.057,   1.721e-4
1.058,   1.731e-4
1.059,   1.760e-4
1.060,   1.733e-4
1.061,   1.717e-4
1.062,   1.725e-4
1.063,   1.745e-4
1.064,   1.757e-4
1.065,   1.719e-4
1.066,   1.729e-4
1.067,   1.727e-4
1.068,   1.758e-4
1.069,   1.747e-4
1.070,   1.724e-4
1.071,   1.717e-4
1.072,   1.745e-4
1.073,   1.755e-4
1.074,   1.736e-4
1.075,   1.727e-4
1.076,   1.722e-4
1.077,   1.760e-4
1.078,   1.764e-4
1.079,   1.739e-4
1.080,   1.719e-4
1.081,   1.734e-4
1.082,   1.777e-4
1.083,   1.753e-4
1.084,   1.733e-4
1.085,   1.731e-4
1.086,   1.751e-4
1.087,   1.785e-4
1.088,   1.747e-4
1.089,   1.736e-4
1.090,   1.752e-4
1.091,   1.785e-4
1.092,   1.766e-4
1.093,   1.751e-4
1.094,   1.745e-4
1.095,   1.765e-4
1.096,   1.794e-4
1.097,   1.759e-4
1.098,   1.758e-4
1.099,   1.766e-4
1.100,   1.793e-4
1.101,   1.798e-4
1.102,   1.755e-4
1.103,   1.763e-4
1.104,   1.779e-4
1.105,   1.817e-4
1.106,   1.779e-4
1.107,   1.766e-4
1.108,   1.767e-4
1.109,   1.812e-4
1.110,   1.828e-4
1.111,   1.777e-4
1.112,   1.775e-4
1.113,   1.797e-4
1.114,   1.846e-4
1.115,   1.806e-4
1.116,   1.789e-4
1.117,   1.788e-4
1.118,   1.817e-4
1.119,   1.852e-4
1.120,   1.816e-4
1.121,   1.795e-4
1.122,   1.803e-4
1.123,   1.843e-4
1.124,   1.855e-4
1.125,   1.820e-4
1.126,   1.802e-4
1.127,   1.846e-4
1.128,   1.891e-4
1.129,   1.857e-4
1.130,   1.831e-4
1.131,   1.826e-4
1.132,   1.875e-4
1.133,   1.897e-4
1.134,   1.855e-4
1.135,   1.842e-4
1.136,   1.867e-4
1.137,   1.912e-4
1.138,   1.887e-4
1.139,   1.870e-4
1.140,   1.866e-4
1.141,   1.898e-4
1.142,   1.935e-4
1.143,   1.877e-4
1.144,   1.871e-4
1.145,   1.881e-4
1.146,   1.950e-4
1.147,   1.932e-4
1.148,   1.904e-4
1.149,   1.896e-4
1.150,   1.931e-4
1.151,   1.950e-4
1.152,   1.917e-4
1.153,   1.903e-4
1.154,   1.920e-4
1.155,   1.960e-4
1.156,   1.974e-4
1.157,   1.931e-4
1.158,   1.924e-4
1.159,   1.958e-4
1.160,   1.994e-4
1.161,   1.962e-4
1.162,   1.944e-4
1.163,   1.939e-4
1.164,   1.983e-4
1.165,   2.004e-4
1.166,   1.958e-4
1.167,   1.954e-4
1.168,   1.975e-4
1.169,   2.015e-4
1.170,   2.011e-4
1.171,   1.955e-4
1.172,   1.958e-4
1.173,   1.999e-4
1.174,   2.039e-4
1.175,   1.998e-4
1.176,   1.982e-4
1.177,   1.984e-4
1.178,   2.036e-4
1.179,   2.038e-4
1.180,   1.988e-4
1.181,   1.999e-4
1.182,   2.019e-4
1.183,   2.057e-4
1.184,   2.027e-4
1.185,   2.000e-4
1.186,   2.011e-4
1.187,   2.048e-4
1.188,   2.068e-4
1.189,   2.023e-4
1.190,   2.036e-4
1.191,   2.027e-4
1.192,   2.067e-4
1.193,   2.068e-4
1.194,   2.017e-4
1.195,   2.018e-4
1.196,   2.057e-4
1.197,   2.102e-4
1.198,   2.045e-4
1.199,   2.038e-4
1.200,   2.056e-4
1.201,   2.102e-4
1.202,   2.118e-4
1.203,   2.051e-4
1.204,   2.057e-4
1.205,   2.083e-4
1.206,   2.122e-4
1.207,   2.092e-4
1.208,   2.086e-4
1.209,   2.041e-4
1.210,   2.114e-4
1.211,   2.132e-4
1.212,   2.074e-4
1.213,   2.081e-4
1.214,   2.101e-4
1.215,   2.146e-4
1.216,   2.138e-4
1.217,   2.081e-4
1.218,   2.116e-4
1.219,   2.138e-4
1.220,   2.166e-4
1.221,   2.124e-4
1.222,   2.126e-4
1.223,   2.122e-4
1.224,   2.155e-4
1.225,   2.174e-4
1.226,   2.121e-4
1.227,   2.121e-4
1.228,   2.158e-4
1.229,   2.199e-4
1.230,   2.155e-4
1.231,   2.147e-4
1.232,   2.153e-4
1.233,   2.190e-4
1.234,   2.224e-4
1.235,   2.156e-4
1.236,   2.164e-4
1.237,   2.167e-4
1.238,   2.225e-4
1.239,   2.203e-4
1.240,   2.177e-4
1.241,   2.178e-4
1.242,   2.219e-4
1.243,   2.250e-4
1.244,   2.197e-4
1.245,   2.173e-4
1.246,   2.193e-4
1.247,   2.250e-4
1.248,   2.259e-4
1.249,   2.190e-4
1.250,   2.188e-4
1.251,   2.232e-4
1.252,   2.288e-4
1.253,   2.250e-4
1.254,   2.206e-4
1.255,   2.222e-4
1.256,   2.270e-4
1.257,   2.305e-4
1.258,   2.232e-4
1.259,   2.223e-4
1.260,   2.268e-4
1.261,   2.297e-4
1.262,   2.278e-4
1.263,   2.238e-4
1.264,   2.257e-4
1.265,   2.293e-4
1.266,   2.322e-4
1.267,   2.267e-4
1.268,   2.269e-4
1.269,   2.281e-4
1.270,   2.327e-4
1.271,   2.326e-4
1.272,   2.270e-4
1.273,   2.270e-4
1.274,   2.317e-4
1.275,   2.355e-4
1.276,   2.311e-4
1.277,   2.299e-4
1.278,   2.296e-4
1.279,   2.350e-4
1.280,   2.368e-4
1.281,   2.312e-4
1.282,   2.299e-4
1.283,   2.358e-4
1.284,   2.391e-4
1.285,   2.356e-4
1.286,   2.323e-4
1.287,   2.314e-4
1.288,   2.360e-4
1.289,   2.417e-4
1.290,   2.359e-4
1.291,   2.348e-4
1.292,   2.356e-4
1.293,   2.419e-4
1.294,   2.391e-4
1.295,   2.366e-4
1.296,   2.345e-4
1.297,   2.406e-4
1.298,   2.446e-4
1.299,   2.397e-4
1.300,   2.381e-4
1.301,   2.374e-4
1.302,   2.462e-4
1.303,   2.466e-4
1.304,   2.401e-4
1.305,   2.387e-4
1.306,   2.426e-4
1.307,   2.508e-4
1.308,   2.459e-4
1.309,   2.428e-4
1.310,   2.381e-4
1.311,   2.474e-4
1.312,   2.523e-4
1.313,   2.449e-4
1.314,   2.440e-4
1.315,   2.432e-4
1.316,   2.526e-4
1.317,   2.535e-4
1.318,   2.469e-4
1.319,   2.433e-4
1.320,   2.494e-4
1.321,   2.587e-4
1.322,   2.525e-4
1.323,   2.474e-4
1.324,   2.465e-4
1.325,   2.572e-4
1.326,   2.593e-4
1.327,   2.518e-4
1.328,   2.501e-4
1.329,   2.538e-4
1.330,   2.614e-4
1.331,   2.594e-4
1.332,   2.524e-4
1.333,   2.509e-4
1.334,   2.611e-4
1.335,   2.668e-4
1.336,   2.579e-4
1.337,   2.550e-4
1.338,   2.592e-4
1.339,   2.669e-4
1.340,   2.684e-4
1.341,   2.605e-4
1.342,   2.595e-4
1.343,   2.635e-4
1.344,   2.726e-4
1.345,   2.658e-4
1.346,   2.631e-4
1.347,   2.650e-4
1.348,   2.718e-4
1.349,   2.759e-4
1.350,   2.668e-4
1.351,   2.661e-4
1.352,   2.700e-4
1.353,   2.790e-4
1.354,   2.748e-4
1.355,   2.684e-4
1.356,   2.702e-4
1.357,   2.783e-4
1.358,   2.835e-4
1.359,   2.748e-4
1.360,   2.737e-4
1.361,   2.770e-4
1.362,   2.846e-4
1.363,   2.854e-4
1.364,   2.760e-4
1.365,   2.790e-4
1.366,   2.865e-4
1.367,   2.937e-4
1.368,   2.846e-4
1.369,   2.840e-4
1.370,   2.849e-4
1.371,   2.953e-4
1.372,   2.980e-4
1.373,   2.890e-4
1.374,   2.895e-4
1.375,   2.947e-4
1.376,   3.039e-4
1.377,   2.988e-4
1.378,   2.924e-4
1.379,   2.930e-4
1.380,   3.050e-4
1.381,   3.125e-4
1.382,   3.013e-4
1.383,   3.005e-4
1.384,   3.050e-4
1.385,   3.167e-4
1.386,   3.174e-4
1.387,   3.067e-4
1.388,   3.097e-4
1.389,   3.165e-4
1.390,   3.263e-4
1.391,   3.204e-4
1.392,   3.188e-4
1.393,   3.198e-4
1.394,   3.305e-4
1.395,   3.356e-4
1.396,   3.256e-4
1.397,   3.268e-4
1.398,   3.338e-4
1.399,   3.459e-4
1.400,   3.421e-4
1.401,   3.352e-4
1.402,   3.393e-4
1.403,   3.516e-4
1.404,   3.601e-4
1.405,   3.487e-4
1.406,   3.507e-4
1.407,   3.560e-4
1.408,   3.701e-4
1.409,   3.729e-4
1.410,   3.647e-4
1.411,   3.702e-4
1.412,   3.811e-4
1.413,   3.958e-4
1.414,   3.868e-4
1.415,   3.851e-4
1.416,   3.942e-4
1.417,   4.104e-4
1.418,   4.192e-4
1.419,   4.093e-4
1.420,   4.105e-4
1.421,   4.288e-4
1.422,   4.489e-4
1.423,   4.486e-4
1.424,   4.418e-4
1.425,   4.496e-4
1.426,   4.757e-4
1.427,   4.899e-4
1.428,   4.838e-4
1.429,   4.875e-4
1.430,   5.054e-4
1.431,   5.345e-4
1.432,   5.426e-4
1.433,   5.370e-4
1.434,   5.509e-4
1.435,   5.766e-4
1.436,   6.039e-4
1.437,   6.058e-4
1.438,   6.102e-4
1.439,   6.301e-4
1.440,   6.650e-4
1.441,   6.953e-4
1.442,   6.918e-4
1.443,   7.050e-4
1.444,   7.409e-4
1.445,   7.885e-4
1.446,   8.081e-4
1.447,   8.144e-4
1.448,   8.330e-4
1.449,   8.878e-4
1.450,   9.372e-4
1.451,   9.423e-4
1.452,   9.569e-4
1.453,   1.008e-3
1.454,   1.073e-3
1.455,   1.116e-3
1.456,   1.121e-3
1.457,   1.150e-3
1.458,   1.224e-3
1.459,   1.315e-3
1.460,   1.335e-3
1.461,   1.348e-3
1.462,   1.404e-3
1.463,   1.508e-3
1.464,   1.585e-3
1.465,   1.595e-3
1.466,   1.627e-3
1.467,   1.726e-3
1.468,   1.859e-3
1.469,   1.893e-3
1.470,   1.920e-3
1.471,   1.981e-3
1.472,   2.098e-3
1.473,   2.241e-3
1.474,   2.262e-3
1.475,   2.300e-3
1.476,   2.396e-3
1.477,   2.570e-3
1.478,   2.657e-3
1.479,   2.678e-3
1.480,   2.746e-3
1.481,   2.950e-3
1.482,   3.098e-3
1.483,   3.107e-3
1.484,   3.137e-3
1.485,   3.290e-3
1.486,   3.527e-3
1.487,   3.652e-3
1.488,   3.662e-3
1.489,   3.709e-3
1.490,   3.919e-3
1.491,   4.184e-3
1.492,   4.264e-3
1.493,   4.239e-3
1.494,   4.349e-3
1.495,   4.689e-3
1.496,   4.874e-3
1.497,   4.834e-3
1.498,   4.857e-3
1.499,   5.064e-3
1.500,   5.381e-3
1.501,   5.539e-3
1.502,   5.465e-3
1.503,   5.562e-3
1.504,   5.901e-3
1.505,   6.089e-3
1.506,   6.056e-3
1.507,   6.050e-3
1.508,   6.265e-3
1.509,   6.580e-3
1.510,   6.821e-3
1.511,   6.734e-3
1.512,   6.713e-3
1.513,   7.085e-3
1.514,   7.522e-3
1.515,   7.639e-3
1.516,   7.476e-3
1.517,   7.634e-3
1.518,   8.070e-3
1.519,   8.406e-3
1.520,   8.269e-3
1.521,   8.244e-3
1.522,   8.360e-3
1.523,   8.774e-3
1.524,   8.904e-3
1.525,   8.734e-3
1.526,   8.704e-3
1.527,   9.099e-3
1.528,   9.318e-3
1.529,   9.258e-3
1.530,   9.109e-3
1.531,   9.299e-3
1.532,   9.614e-3
1.533,   9.586e-3
1.534,   9.554e-3
1.535,   9.603e-3
1.536,   9.837e-3
1.537,   9.881e-3