File: Experimental Records, Raw Data, and Supplementary Notes and Figures/batch5/final400/B5_BEST_400_#1_High_Quality(#31)-255mV.txt
May 31, 2023   13:54:26
Linear Sweep Voltammetry
File: d:\current work\al_oer\electrochemical test data\batch 5\400\B5_BEST_400_#1_High_Quality(#31)-255mV.txt
Data Source:  Experiment
Instrument Model:  CHI660E
Header:
Note:

Init E (V) = 0.900

Final E (V) = 1.699

Scan Rate (V/s) = 0.010
Sample Interval (V) = 0.001
Quiet Time (sec) = 2
Sensitivity (A/V) = 0.001
Comp R (ohm) = 6.0

Results:

Channel 1:

Potential/V, Current/A
0.900,   5.754e-5
0.901,   6.409e-5
0.902,   6.523e-5
0.903,   6.574e-5
0.904,   6.542e-5
0.905,   6.534e-5
0.906,   6.512e-5
0.907,   6.484e-5
0.908,   6.475e-5
0.909,   6.435e-5
0.910,   6.430e-5
0.911,   6.423e-5
0.912,   6.415e-5
0.913,   6.379e-5
0.914,   6.371e-5
0.915,   6.328e-5
0.916,   6.293e-5
0.917,   6.261e-5
0.918,   6.234e-5
0.919,   6.212e-5
0.920,   6.171e-5
0.921,   6.142e-5
0.922,   6.121e-5
0.923,   6.126e-5
0.924,   6.124e-5
0.925,   6.089e-5
0.926,   6.066e-5
0.927,   6.063e-5
0.928,   6.019e-5
0.929,   5.993e-5
0.930,   5.953e-5
0.931,   5.931e-5
0.932,   5.909e-5
0.933,   5.871e-5
0.934,   5.859e-5
0.935,   5.852e-5
0.936,   5.884e-5
0.937,   5.844e-5
0.938,   5.813e-5
0.939,   5.795e-5
0.940,   5.776e-5
0.941,   5.748e-5
0.942,   5.724e-5
0.943,   5.687e-5
0.944,   5.674e-5
0.945,   5.656e-5
0.946,   5.633e-5
0.947,   5.629e-5
0.948,   5.647e-5
0.949,   5.637e-5
0.950,   5.592e-5
0.951,   5.594e-5
0.952,   5.575e-5
0.953,   5.555e-5
0.954,   5.533e-5
0.955,   5.541e-5
0.956,   5.504e-5
0.957,   5.456e-5
0.958,   5.473e-5
0.959,   5.471e-5
0.960,   5.461e-5
0.961,   5.450e-5
0.962,   5.429e-5
0.963,   5.431e-5
0.964,   5.421e-5
0.965,   5.408e-5
0.966,   5.382e-5
0.967,   5.372e-5
0.968,   5.347e-5
0.969,   5.335e-5
0.970,   5.314e-5
0.971,   5.314e-5
0.972,   5.327e-5
0.973,   5.350e-5
0.974,   5.299e-5
0.975,   5.304e-5
0.976,   5.278e-5
0.977,   5.267e-5
0.978,   5.264e-5
0.979,   5.236e-5
0.980,   5.224e-5
0.981,   5.210e-5
0.982,   5.185e-5
0.983,   5.175e-5
0.984,   5.218e-5
0.985,   5.228e-5
0.986,   5.205e-5
0.987,   5.188e-5
0.988,   5.177e-5
0.989,   5.185e-5
0.990,   5.132e-5
0.991,   5.143e-5
0.992,   5.121e-5
0.993,   5.109e-5
0.994,   5.100e-5
0.995,   5.077e-5
0.996,   5.105e-5
0.997,   5.112e-5
0.998,   5.101e-5
0.999,   5.111e-5
1.000,   5.088e-5
1.001,   5.075e-5
1.002,   5.090e-5
1.003,   5.060e-5
1.004,   5.046e-5
1.005,   5.040e-5
1.006,   5.023e-5
1.007,   5.009e-5
1.008,   4.995e-5
1.009,   5.051e-5
1.010,   5.025e-5
1.011,   5.030e-5
1.012,   5.035e-5
1.013,   5.008e-5
1.014,   5.014e-5
1.015,   4.987e-5
1.016,   4.979e-5
1.017,   4.981e-5
1.018,   4.958e-5
1.019,   4.949e-5
1.020,   4.980e-5
1.021,   4.991e-5
1.022,   4.990e-5
1.023,   4.947e-5
1.024,   4.981e-5
1.025,   4.987e-5
1.026,   4.932e-5
1.027,   4.955e-5
1.028,   4.955e-5
1.029,   4.916e-5
1.030,   4.934e-5
1.031,   4.892e-5
1.032,   4.904e-5
1.033,   4.960e-5
1.034,   4.964e-5
1.035,   4.922e-5
1.036,   4.924e-5
1.037,   4.933e-5
1.038,   4.912e-5
1.039,   4.923e-5
1.040,   4.907e-5
1.041,   4.897e-5
1.042,   4.899e-5
1.043,   4.881e-5
1.044,   4.879e-5
1.045,   4.904e-5
1.046,   4.923e-5
1.047,   4.945e-5
1.048,   4.903e-5
1.049,   4.919e-5
1.050,   4.902e-5
1.051,   4.893e-5
1.052,   4.898e-5
1.053,   4.888e-5
1.054,   4.886e-5
1.055,   4.892e-5
1.056,   4.876e-5
1.057,   4.890e-5
1.058,   4.917e-5
1.059,   4.935e-5
1.060,   4.919e-5
1.061,   4.920e-5
1.062,   4.902e-5
1.063,   4.910e-5
1.064,   4.889e-5
1.065,   4.908e-5
1.066,   4.903e-5
1.067,   4.893e-5
1.068,   4.893e-5
1.069,   4.901e-5
1.070,   4.943e-5
1.071,   4.919e-5
1.072,   4.953e-5
1.073,   4.910e-5
1.074,   4.934e-5
1.075,   4.930e-5
1.076,   4.924e-5
1.077,   4.913e-5
1.078,   4.917e-5
1.079,   4.905e-5
1.080,   4.901e-5
1.081,   4.926e-5
1.082,   4.970e-5
1.083,   4.987e-5
1.084,   4.976e-5
1.085,   4.970e-5
1.086,   4.970e-5
1.087,   4.964e-5
1.088,   4.930e-5
1.089,   4.957e-5
1.090,   4.960e-5
1.091,   4.946e-5
1.092,   4.953e-5
1.093,   4.964e-5
1.094,   5.017e-5
1.095,   5.039e-5
1.096,   5.009e-5
1.097,   5.018e-5
1.098,   5.017e-5
1.099,   5.005e-5
1.100,   5.028e-5
1.101,   5.007e-5
1.102,   5.014e-5
1.103,   5.013e-5
1.104,   4.995e-5
1.105,   5.021e-5
1.106,   5.052e-5
1.107,   5.076e-5
1.108,   5.077e-5
1.109,   5.073e-5
1.110,   5.078e-5
1.111,   5.076e-5
1.112,   5.083e-5
1.113,   5.087e-5
1.114,   5.088e-5
1.115,   5.082e-5
1.116,   5.066e-5
1.117,   5.087e-5
1.118,   5.104e-5
1.119,   5.158e-5
1.120,   5.161e-5
1.121,   5.156e-5
1.122,   5.159e-5
1.123,   5.168e-5
1.124,   5.175e-5
1.125,   5.163e-5
1.126,   5.179e-5
1.127,   5.176e-5
1.128,   5.143e-5
1.129,   5.195e-5
1.130,   5.224e-5
1.131,   5.223e-5
1.132,   5.246e-5
1.133,   5.254e-5
1.134,   5.259e-5
1.135,   5.266e-5
1.136,   5.254e-5
1.137,   5.262e-5
1.138,   5.266e-5
1.139,   5.277e-5
1.140,   5.261e-5
1.141,   5.272e-5
1.142,   5.305e-5
1.143,   5.338e-5
1.144,   5.355e-5
1.145,   5.367e-5
1.146,   5.379e-5
1.147,   5.369e-5
1.148,   5.371e-5
1.149,   5.383e-5
1.150,   5.376e-5
1.151,   5.393e-5
1.152,   5.404e-5
1.153,   5.370e-5
1.154,   5.420e-5
1.155,   5.455e-5
1.156,   5.505e-5
1.157,   5.466e-5
1.158,   5.493e-5
1.159,   5.509e-5
1.160,   5.499e-5
1.161,   5.511e-5
1.162,   5.506e-5
1.163,   5.524e-5
1.164,   5.525e-5
1.165,   5.504e-5
1.166,   5.534e-5
1.167,   5.589e-5
1.168,   5.603e-5
1.169,   5.631e-5
1.170,   5.631e-5
1.171,   5.645e-5
1.172,   5.644e-5
1.173,   5.671e-5
1.174,   5.626e-5
1.175,   5.654e-5
1.176,   5.643e-5
1.177,   5.681e-5
1.178,   5.667e-5
1.179,   5.704e-5
1.180,   5.745e-5
1.181,   5.794e-5
1.182,   5.763e-5
1.183,   5.783e-5
1.184,   5.795e-5
1.185,   5.781e-5
1.186,   5.839e-5
1.187,   5.783e-5
1.188,   5.806e-5
1.189,   5.800e-5
1.190,   5.850e-5
1.191,   5.842e-5
1.192,   5.893e-5
1.193,   5.941e-5
1.194,   5.933e-5
1.195,   5.951e-5
1.196,   5.953e-5
1.197,   5.943e-5
1.198,   5.945e-5
1.199,   5.967e-5
1.200,   5.979e-5
1.201,   5.973e-5
1.202,   5.985e-5
1.203,   6.029e-5
1.204,   6.072e-5
1.205,   6.089e-5
1.206,   6.111e-5
1.207,   6.123e-5
1.208,   6.182e-5
1.209,   6.151e-5
1.210,   6.153e-5
1.211,   6.149e-5
1.212,   6.144e-5
1.213,   6.153e-5
1.214,   6.147e-5
1.215,   6.208e-5
1.216,   6.261e-5
1.217,   6.296e-5
1.218,   6.312e-5
1.219,   6.310e-5
1.220,   6.333e-5
1.221,   6.322e-5
1.222,   6.349e-5
1.223,   6.351e-5
1.224,   6.359e-5
1.225,   6.359e-5
1.226,   6.357e-5
1.227,   6.397e-5
1.228,   6.457e-5
1.229,   6.547e-5
1.230,   6.541e-5
1.231,   6.555e-5
1.232,   6.562e-5
1.233,   6.550e-5
1.234,   6.572e-5
1.235,   6.574e-5
1.236,   6.601e-5
1.237,   6.592e-5
1.238,   6.591e-5
1.239,   6.626e-5
1.240,   6.681e-5
1.241,   6.778e-5
1.242,   6.794e-5
1.243,   6.787e-5
1.244,   6.812e-5
1.245,   6.781e-5
1.246,   6.854e-5
1.247,   6.830e-5
1.248,   6.860e-5
1.249,   6.878e-5
1.250,   6.852e-5
1.251,   6.894e-5
1.252,   6.961e-5
1.253,   7.038e-5
1.254,   7.030e-5
1.255,   7.077e-5
1.256,   7.100e-5
1.257,   7.103e-5
1.258,   7.114e-5
1.259,   7.129e-5
1.260,   7.159e-5
1.261,   7.186e-5
1.262,   7.179e-5
1.263,   7.205e-5
1.264,   7.248e-5
1.265,   7.330e-5
1.266,   7.369e-5
1.267,   7.438e-5
1.268,   7.437e-5
1.269,   7.443e-5
1.270,   7.449e-5
1.271,   7.458e-5
1.272,   7.476e-5
1.273,   7.485e-5
1.274,   7.524e-5
1.275,   7.550e-5
1.276,   7.602e-5
1.277,   7.673e-5
1.278,   7.705e-5
1.279,   7.754e-5
1.280,   7.789e-5
1.281,   7.822e-5
1.282,   7.846e-5
1.283,   7.835e-5
1.284,   7.902e-5
1.285,   7.861e-5
1.286,   7.912e-5
1.287,   7.902e-5
1.288,   8.030e-5
1.289,   8.057e-5
1.290,   8.134e-5
1.291,   8.150e-5
1.292,   8.178e-5
1.293,   8.233e-5
1.294,   8.232e-5
1.295,   8.277e-5
1.296,   8.308e-5
1.297,   8.316e-5
1.298,   8.344e-5
1.299,   8.355e-5
1.300,   8.400e-5
1.301,   8.484e-5
1.302,   8.604e-5
1.303,   8.614e-5
1.304,   8.640e-5
1.305,   8.735e-5
1.306,   8.735e-5
1.307,   8.746e-5
1.308,   8.780e-5
1.309,   8.812e-5
1.310,   8.841e-5
1.311,   8.851e-5
1.312,   8.909e-5
1.313,   8.984e-5
1.314,   9.088e-5
1.315,   9.142e-5
1.316,   9.151e-5
1.317,   9.215e-5
1.318,   9.235e-5
1.319,   9.273e-5
1.320,   9.278e-5
1.321,   9.295e-5
1.322,   9.390e-5
1.323,   9.372e-5
1.324,   9.395e-5
1.325,   9.508e-5
1.326,   9.681e-5
1.327,   9.711e-5
1.328,   9.742e-5
1.329,   9.823e-5
1.330,   9.833e-5
1.331,   9.881e-5
1.332,   9.975e-5
1.333,   9.962e-5
1.334,   9.966e-5
1.335,   1.005e-4
1.336,   1.005e-4
1.337,   1.011e-4
1.338,   1.026e-4
1.339,   1.033e-4
1.340,   1.044e-4
1.341,   1.049e-4
1.342,   1.050e-4
1.343,   1.058e-4
1.344,   1.063e-4
1.345,   1.067e-4
1.346,   1.073e-4
1.347,   1.074e-4
1.348,   1.077e-4
1.349,   1.087e-4
1.350,   1.107e-4
1.351,   1.117e-4
1.352,   1.123e-4
1.353,   1.132e-4
1.354,   1.140e-4
1.355,   1.140e-4
1.356,   1.148e-4
1.357,   1.154e-4
1.358,   1.161e-4
1.359,   1.166e-4
1.360,   1.171e-4
1.361,   1.178e-4
1.362,   1.192e-4
1.363,   1.208e-4
1.364,   1.225e-4
1.365,   1.226e-4
1.366,   1.236e-4
1.367,   1.248e-4
1.368,   1.251e-4
1.369,   1.255e-4
1.370,   1.267e-4
1.371,   1.276e-4
1.372,   1.278e-4
1.373,   1.289e-4
1.374,   1.311e-4
1.375,   1.330e-4
1.376,   1.347e-4
1.377,   1.352e-4
1.378,   1.369e-4
1.379,   1.375e-4
1.380,   1.383e-4
1.381,   1.391e-4
1.382,   1.408e-4
1.383,   1.420e-4
1.384,   1.423e-4
1.385,   1.438e-4
1.386,   1.468e-4
1.387,   1.486e-4
1.388,   1.515e-4
1.389,   1.523e-4
1.390,   1.541e-4
1.391,   1.554e-4
1.392,   1.563e-4
1.393,   1.583e-4
1.394,   1.601e-4
1.395,   1.620e-4
1.396,   1.634e-4
1.397,   1.644e-4
1.398,   1.668e-4
1.399,   1.709e-4
1.400,   1.742e-4
1.401,   1.763e-4
1.402,   1.789e-4
1.403,   1.815e-4
1.404,   1.834e-4
1.405,   1.863e-4
1.406,   1.891e-4
1.407,   1.921e-4
1.408,   1.948e-4
1.409,   1.972e-4
1.410,   2.011e-4
1.411,   2.056e-4
1.412,   2.104e-4
1.413,   2.141e-4
1.414,   2.181e-4
1.415,   2.229e-4
1.416,   2.262e-4
1.417,   2.310e-4
1.418,   2.361e-4
1.419,   2.416e-4
1.420,   2.460e-4
1.421,   2.510e-4
1.422,   2.561e-4
1.423,   2.642e-4
1.424,   2.724e-4
1.425,   2.807e-4
1.426,   2.889e-4
1.427,   2.965e-4
1.428,   3.035e-4
1.429,   3.124e-4
1.430,   3.209e-4
1.431,   3.313e-4
1.432,   3.389e-4
1.433,   3.476e-4
1.434,   3.589e-4
1.435,   3.727e-4
1.436,   3.888e-4
1.437,   4.013e-4
1.438,   4.155e-4
1.439,   4.304e-4
1.440,   4.428e-4
1.441,   4.576e-4
1.442,   4.747e-4
1.443,   4.930e-4
1.444,   5.107e-4
1.445,   5.265e-4
1.446,   5.461e-4
1.447,   5.692e-4
1.448,   5.928e-4
1.449,   6.184e-4
1.450,   6.412e-4
1.451,   6.661e-4
1.452,   6.915e-4
1.453,   7.148e-4
1.454,   7.437e-4
1.455,   7.714e-4
1.456,   8.016e-4
1.457,   8.296e-4
1.458,   8.533e-4
1.459,   8.853e-4
1.460,   9.209e-4
1.461,   9.589e-4
1.462,   9.964e-4
1.463,   1.032e-3
1.464,   1.064e-3
1.465,   1.099e-3
1.466,   1.135e-3
1.467,   1.168e-3
1.468,   1.211e-3
1.469,   1.246e-3
1.470,   1.285e-3
1.471,   1.322e-3
1.472,   1.369e-3
1.473,   1.415e-3
1.474,   1.455e-3
1.475,   1.498e-3
1.476,   1.537e-3
1.477,   1.581e-3
1.478,   1.621e-3
1.479,   1.658e-3
1.480,   1.698e-3
1.481,   1.733e-3
1.482,   1.774e-3
1.483,   1.807e-3
1.484,   1.849e-3
1.485,   1.904e-3
1.486,   1.959e-3
1.487,   2.001e-3
1.488,   2.040e-3
1.489,   2.086e-3
1.490,   2.128e-3
1.491,   2.175e-3
1.492,   2.202e-3
1.493,   2.247e-3
1.494,   2.283e-3
1.495,   2.334e-3
1.496,   2.374e-3
1.497,   2.424e-3
1.498,   2.474e-3
1.499,   2.505e-3
1.500,   2.555e-3
1.501,   2.585e-3
1.502,   2.614e-3
1.503,   2.643e-3
1.504,   2.688e-3
1.505,   2.725e-3
1.506,   2.763e-3
1.507,   2.784e-3
1.508,   2.818e-3
1.509,   2.857e-3
1.510,   2.920e-3
1.511,   2.962e-3
1.512,   3.007e-3
1.513,   3.045e-3
1.514,   3.087e-3
1.515,   3.127e-3
1.516,   3.167e-3
1.517,   3.216e-3
1.518,   3.262e-3
1.519,   3.284e-3
1.520,   3.325e-3
1.521,   3.368e-3
1.522,   3.426e-3
1.523,   3.478e-3
1.524,   3.516e-3
1.525,   3.555e-3
1.526,   3.598e-3
1.527,   3.631e-3
1.528,   3.664e-3
1.529,   3.700e-3
1.530,   3.725e-3
1.531,   3.767e-3
1.532,   3.789e-3
1.533,   3.841e-3
1.534,   3.896e-3
1.535,   3.938e-3
1.536,   3.977e-3
1.537,   4.037e-3
1.538,   4.069e-3
1.539,   4.097e-3
1.540,   4.119e-3
1.541,   4.152e-3
1.542,   4.183e-3
1.543,   4.203e-3
1.544,   4.227e-3
1.545,   4.273e-3
1.546,   4.335e-3
1.547,   4.394e-3
1.548,   4.440e-3
1.549,   4.470e-3
1.550,   4.501e-3
1.551,   4.552e-3
1.552,   4.578e-3
1.553,   4.606e-3
1.554,   4.627e-3
1.555,   4.649e-3
1.556,   4.672e-3
1.557,   4.702e-3
1.558,   4.742e-3
1.559,   4.797e-3
1.560,   4.816e-3
1.561,   4.869e-3
1.562,   4.873e-3
1.563,   4.897e-3
1.564,   4.899e-3
1.565,   4.895e-3
1.566,   4.920e-3
1.567,   4.913e-3
1.568,   4.938e-3
1.569,   4.981e-3
1.570,   5.016e-3
1.571,   5.039e-3
1.572,   5.082e-3
1.573,   5.095e-3
1.574,   5.137e-3
1.575,   5.167e-3
1.576,   5.197e-3
1.577,   5.216e-3
1.578,   5.225e-3
1.579,   5.220e-3
1.580,   5.216e-3
1.581,   5.227e-3
1.582,   5.260e-3
1.583,   5.303e-3
1.584,   5.324e-3
1.585,   5.337e-3
1.586,   5.377e-3
1.587,   5.395e-3
1.588,   5.414e-3
1.589,   5.430e-3
1.590,   5.475e-3
1.591,   5.466e-3
1.592,   5.427e-3
1.593,   5.427e-3
1.594,   5.457e-3
1.595,   5.465e-3
1.596,   5.514e-3
1.597,   5.549e-3
1.598,   5.547e-3
1.599,   5.552e-3
1.600,   5.576e-3
1.601,   5.591e-3
1.602,   5.622e-3
1.603,   5.636e-3
1.604,   5.623e-3
1.605,   5.619e-3
1.606,   5.640e-3
1.607,   5.649e-3
1.608,   5.666e-3
1.609,   5.715e-3
1.610,   5.727e-3
1.611,   5.756e-3
1.612,   5.736e-3
1.613,   5.724e-3
1.614,   5.730e-3
1.615,   5.765e-3
1.616,   5.742e-3
1.617,   5.771e-3
1.618,   5.778e-3
1.619,   5.790e-3
1.620,   5.807e-3
1.621,   5.845e-3
1.622,   5.846e-3
1.623,   5.922e-3
1.624,   5.915e-3
1.625,   5.931e-3
1.626,   5.910e-3
1.627,   5.871e-3
1.628,   5.868e-3
1.629,   5.860e-3
1.630,   5.902e-3
1.631,   5.923e-3
1.632,   5.957e-3
1.633,   6.015e-3
1.634,   6.041e-3
1.635,   6.043e-3
1.636,   6.039e-3
1.637,   6.049e-3
1.638,   5.988e-3
1.639,   5.992e-3
1.640,   5.982e-3
1.641,   5.987e-3
1.642,   6.008e-3
1.643,   6.001e-3
1.644,   6.010e-3
1.645,   6.010e-3
1.646,   6.045e-3
1.647,   6.064e-3
1.648,   6.042e-3
1.649,   6.071e-3
1.650,   6.084e-3
1.651,   6.019e-3
1.652,   6.002e-3
1.653,   6.021e-3
1.654,   6.010e-3
1.655,   6.037e-3
1.656,   6.050e-3
1.657,   6.070e-3
1.658,   6.113e-3
1.659,   6.113e-3
1.660,   6.094e-3
1.661,   6.109e-3
1.662,   6.129e-3
1.663,   6.121e-3
1.664,   6.109e-3
1.665,   6.073e-3
1.666,   6.057e-3
1.667,   6.107e-3
1.668,   6.142e-3
1.669,   6.119e-3
1.670,   6.125e-3
1.671,   6.096e-3
1.672,   6.138e-3
1.673,   6.110e-3
1.674,   6.084e-3
1.675,   6.063e-3
1.676,   6.042e-3
1.677,   6.092e-3
1.678,   6.090e-3
1.679,   6.093e-3
1.680,   6.068e-3
1.681,   6.098e-3
1.682,   6.087e-3
1.683,   6.070e-3
1.684,   6.054e-3
1.685,   6.037e-3
1.686,   6.000e-3
1.687,   5.974e-3
1.688,   5.969e-3
1.689,   5.949e-3
1.690,   5.958e-3
1.691,   5.962e-3
1.692,   5.985e-3
1.693,   6.004e-3
1.694,   5.999e-3
1.695,   5.990e-3
1.696,   5.972e-3
1.697,   5.964e-3
1.698,   5.943e-3
1.699,   5.925e-3