File: Experimental Records, Raw Data, and Supplementary Notes and Figures/batch5/final400/B5_BEST_400_#1_Full(#16)-225mV.txt
May 31, 2023   16:29:26
Linear Sweep Voltammetry
File: d:\current work\al_oer\electrochemical test data\batch 5\400\B5_BEST_400_#1_Full(#16)-225mV.txt
Data Source:  Experiment
Instrument Model:  CHI660E
Header:
Note:

Init E (V) = 0.901

Final E (V) = 1.530

Scan Rate (V/s) = 0.010
Sample Interval (V) = 0.001
Quiet Time (sec) = 2
Sensitivity (A/V) = 0.001
Comp R (ohm) = 6.0

Results:

Channel 1:

Potential/V, Current/A
0.901,   1.822e-4
0.902,   2.053e-4
0.903,   2.104e-4
0.904,   2.112e-4
0.905,   2.116e-4
0.906,   2.110e-4
0.907,   2.100e-4
0.908,   2.089e-4
0.909,   2.091e-4
0.910,   2.090e-4
0.911,   2.076e-4
0.912,   2.068e-4
0.913,   2.052e-4
0.914,   2.033e-4
0.915,   2.018e-4
0.916,   2.012e-4
0.917,   2.015e-4
0.918,   2.012e-4
0.919,   2.005e-4
0.920,   1.988e-4
0.921,   1.970e-4
0.922,   1.956e-4
0.923,   1.946e-4
0.924,   1.944e-4
0.925,   1.944e-4
0.926,   1.939e-4
0.927,   1.922e-4
0.928,   1.913e-4
0.929,   1.900e-4
0.930,   1.890e-4
0.931,   1.881e-4
0.932,   1.881e-4
0.933,   1.879e-4
0.934,   1.871e-4
0.935,   1.869e-4
0.936,   1.858e-4
0.937,   1.842e-4
0.938,   1.834e-4
0.939,   1.827e-4
0.940,   1.824e-4
0.941,   1.825e-4
0.942,   1.819e-4
0.943,   1.810e-4
0.944,   1.804e-4
0.945,   1.791e-4
0.946,   1.787e-4
0.947,   1.780e-4
0.948,   1.780e-4
0.949,   1.787e-4
0.950,   1.772e-4
0.951,   1.762e-4
0.952,   1.755e-4
0.953,   1.749e-4
0.954,   1.742e-4
0.955,   1.742e-4
0.956,   1.740e-4
0.957,   1.740e-4
0.958,   1.733e-4
0.959,   1.730e-4
0.960,   1.718e-4
0.961,   1.707e-4
0.962,   1.707e-4
0.963,   1.710e-4
0.964,   1.711e-4
0.965,   1.708e-4
0.966,   1.697e-4
0.967,   1.692e-4
0.968,   1.688e-4
0.969,   1.676e-4
0.970,   1.677e-4
0.971,   1.675e-4
0.972,   1.680e-4
0.973,   1.678e-4
0.974,   1.672e-4
0.975,   1.666e-4
0.976,   1.663e-4
0.977,   1.655e-4
0.978,   1.651e-4
0.979,   1.652e-4
0.980,   1.652e-4
0.981,   1.650e-4
0.982,   1.645e-4
0.983,   1.639e-4
0.984,   1.635e-4
0.985,   1.633e-4
0.986,   1.630e-4
0.987,   1.630e-4
0.988,   1.628e-4
0.989,   1.630e-4
0.990,   1.622e-4
0.991,   1.620e-4
0.992,   1.619e-4
0.993,   1.609e-4
0.994,   1.605e-4
0.995,   1.613e-4
0.996,   1.620e-4
0.997,   1.614e-4
0.998,   1.606e-4
0.999,   1.591e-4
1.000,   1.593e-4
1.001,   1.590e-4
1.002,   1.592e-4
1.003,   1.593e-4
1.004,   1.598e-4
1.005,   1.592e-4
1.006,   1.587e-4
1.007,   1.580e-4
1.008,   1.582e-4
1.009,   1.563e-4
1.010,   1.576e-4
1.011,   1.586e-4
1.012,   1.586e-4
1.013,   1.585e-4
1.014,   1.568e-4
1.015,   1.561e-4
1.016,   1.561e-4
1.017,   1.560e-4
1.018,   1.568e-4
1.019,   1.575e-4
1.020,   1.575e-4
1.021,   1.566e-4
1.022,   1.562e-4
1.023,   1.552e-4
1.024,   1.551e-4
1.025,   1.560e-4
1.026,   1.567e-4
1.027,   1.558e-4
1.028,   1.564e-4
1.029,   1.561e-4
1.030,   1.552e-4
1.031,   1.544e-4
1.032,   1.546e-4
1.033,   1.553e-4
1.034,   1.551e-4
1.035,   1.559e-4
1.036,   1.564e-4
1.037,   1.549e-4
1.038,   1.544e-4
1.039,   1.536e-4
1.040,   1.537e-4
1.041,   1.543e-4
1.042,   1.548e-4
1.043,   1.554e-4
1.044,   1.555e-4
1.045,   1.550e-4
1.046,   1.542e-4
1.047,   1.532e-4
1.048,   1.541e-4
1.049,   1.548e-4
1.050,   1.552e-4
1.051,   1.563e-4
1.052,   1.550e-4
1.053,   1.550e-4
1.054,   1.543e-4
1.055,   1.538e-4
1.056,   1.549e-4
1.057,   1.541e-4
1.058,   1.548e-4
1.059,   1.556e-4
1.060,   1.554e-4
1.061,   1.555e-4
1.062,   1.545e-4
1.063,   1.554e-4
1.064,   1.552e-4
1.065,   1.553e-4
1.066,   1.558e-4
1.067,   1.556e-4
1.068,   1.549e-4
1.069,   1.544e-4
1.070,   1.527e-4
1.071,   1.529e-4
1.072,   1.539e-4
1.073,   1.544e-4
1.074,   1.546e-4
1.075,   1.546e-4
1.076,   1.547e-4
1.077,   1.545e-4
1.078,   1.537e-4
1.079,   1.544e-4
1.080,   1.537e-4
1.081,   1.553e-4
1.082,   1.550e-4
1.083,   1.554e-4
1.084,   1.549e-4
1.085,   1.548e-4
1.086,   1.542e-4
1.087,   1.544e-4
1.088,   1.554e-4
1.089,   1.561e-4
1.090,   1.561e-4
1.091,   1.562e-4
1.092,   1.559e-4
1.093,   1.555e-4
1.094,   1.548e-4
1.095,   1.552e-4
1.096,   1.565e-4
1.097,   1.568e-4
1.098,   1.577e-4
1.099,   1.572e-4
1.100,   1.568e-4
1.101,   1.565e-4
1.102,   1.567e-4
1.103,   1.567e-4
1.104,   1.570e-4
1.105,   1.587e-4
1.106,   1.593e-4
1.107,   1.582e-4
1.108,   1.572e-4
1.109,   1.574e-4
1.110,   1.563e-4
1.111,   1.571e-4
1.112,   1.599e-4
1.113,   1.598e-4
1.114,   1.598e-4
1.115,   1.598e-4
1.116,   1.585e-4
1.117,   1.584e-4
1.118,   1.586e-4
1.119,   1.589e-4
1.120,   1.606e-4
1.121,   1.612e-4
1.122,   1.617e-4
1.123,   1.609e-4
1.124,   1.607e-4
1.125,   1.605e-4
1.126,   1.599e-4
1.127,   1.610e-4
1.128,   1.625e-4
1.129,   1.623e-4
1.130,   1.623e-4
1.131,   1.627e-4
1.132,   1.620e-4
1.133,   1.620e-4
1.134,   1.622e-4
1.135,   1.624e-4
1.136,   1.634e-4
1.137,   1.649e-4
1.138,   1.642e-4
1.139,   1.642e-4
1.140,   1.641e-4
1.141,   1.640e-4
1.142,   1.627e-4
1.143,   1.628e-4
1.144,   1.657e-4
1.145,   1.670e-4
1.146,   1.659e-4
1.147,   1.649e-4
1.148,   1.649e-4
1.149,   1.644e-4
1.150,   1.650e-4
1.151,   1.659e-4
1.152,   1.672e-4
1.153,   1.678e-4
1.154,   1.674e-4
1.155,   1.675e-4
1.156,   1.664e-4
1.157,   1.668e-4
1.158,   1.665e-4
1.159,   1.685e-4
1.160,   1.684e-4
1.161,   1.696e-4
1.162,   1.692e-4
1.163,   1.692e-4
1.164,   1.684e-4
1.165,   1.684e-4
1.166,   1.690e-4
1.167,   1.704e-4
1.168,   1.708e-4
1.169,   1.706e-4
1.170,   1.715e-4
1.171,   1.715e-4
1.172,   1.712e-4
1.173,   1.695e-4
1.174,   1.704e-4
1.175,   1.725e-4
1.176,   1.746e-4
1.177,   1.726e-4
1.178,   1.741e-4
1.179,   1.736e-4
1.180,   1.725e-4
1.181,   1.719e-4
1.182,   1.731e-4
1.183,   1.748e-4
1.184,   1.771e-4
1.185,   1.761e-4
1.186,   1.761e-4
1.187,   1.761e-4
1.188,   1.753e-4
1.189,   1.748e-4
1.190,   1.756e-4
1.191,   1.777e-4
1.192,   1.788e-4
1.193,   1.786e-4
1.194,   1.785e-4
1.195,   1.786e-4
1.196,   1.783e-4
1.197,   1.791e-4
1.198,   1.791e-4
1.199,   1.800e-4
1.200,   1.812e-4
1.201,   1.817e-4
1.202,   1.817e-4
1.203,   1.813e-4
1.204,   1.798e-4
1.205,   1.808e-4
1.206,   1.809e-4
1.207,   1.826e-4
1.208,   1.843e-4
1.209,   1.849e-4
1.210,   1.840e-4
1.211,   1.839e-4
1.212,   1.834e-4
1.213,   1.833e-4
1.214,   1.844e-4
1.215,   1.881e-4
1.216,   1.876e-4
1.217,   1.879e-4
1.218,   1.872e-4
1.219,   1.869e-4
1.220,   1.866e-4
1.221,   1.870e-4
1.222,   1.884e-4
1.223,   1.891e-4
1.224,   1.908e-4
1.225,   1.910e-4
1.226,   1.901e-4
1.227,   1.906e-4
1.228,   1.899e-4
1.229,   1.906e-4
1.230,   1.932e-4
1.231,   1.938e-4
1.232,   1.947e-4
1.233,   1.940e-4
1.234,   1.939e-4
1.235,   1.940e-4
1.236,   1.934e-4
1.237,   1.950e-4
1.238,   1.963e-4
1.239,   1.973e-4
1.240,   1.977e-4
1.241,   1.979e-4
1.242,   1.975e-4
1.243,   1.977e-4
1.244,   1.984e-4
1.245,   1.980e-4
1.246,   2.000e-4
1.247,   2.030e-4
1.248,   2.025e-4
1.249,   2.016e-4
1.250,   2.007e-4
1.251,   2.004e-4
1.252,   2.008e-4
1.253,   2.022e-4
1.254,   2.050e-4
1.255,   2.057e-4
1.256,   2.052e-4
1.257,   2.052e-4
1.258,   2.047e-4
1.259,   2.045e-4
1.260,   2.057e-4
1.261,   2.078e-4
1.262,   2.092e-4
1.263,   2.099e-4
1.264,   2.093e-4
1.265,   2.094e-4
1.266,   2.090e-4
1.267,   2.090e-4
1.268,   2.096e-4
1.269,   2.120e-4
1.270,   2.132e-4
1.271,   2.143e-4
1.272,   2.148e-4
1.273,   2.136e-4
1.274,   2.139e-4
1.275,   2.136e-4
1.276,   2.145e-4
1.277,   2.160e-4
1.278,   2.186e-4
1.279,   2.187e-4
1.280,   2.188e-4
1.281,   2.190e-4
1.282,   2.187e-4
1.283,   2.188e-4
1.284,   2.193e-4
1.285,   2.219e-4
1.286,   2.236e-4
1.287,   2.247e-4
1.288,   2.246e-4
1.289,   2.232e-4
1.290,   2.229e-4
1.291,   2.232e-4
1.292,   2.251e-4
1.293,   2.277e-4
1.294,   2.295e-4
1.295,   2.285e-4
1.296,   2.279e-4
1.297,   2.285e-4
1.298,   2.290e-4
1.299,   2.285e-4
1.300,   2.301e-4
1.301,   2.334e-4
1.302,   2.350e-4
1.303,   2.352e-4
1.304,   2.348e-4
1.305,   2.338e-4
1.306,   2.336e-4
1.307,   2.343e-4
1.308,   2.374e-4
1.309,   2.398e-4
1.310,   2.412e-4
1.311,   2.413e-4
1.312,   2.408e-4
1.313,   2.416e-4
1.314,   2.399e-4
1.315,   2.408e-4
1.316,   2.449e-4
1.317,   2.479e-4
1.318,   2.478e-4
1.319,   2.485e-4
1.320,   2.475e-4
1.321,   2.465e-4
1.322,   2.468e-4
1.323,   2.487e-4
1.324,   2.527e-4
1.325,   2.552e-4
1.326,   2.553e-4
1.327,   2.552e-4
1.328,   2.529e-4
1.329,   2.529e-4
1.330,   2.546e-4
1.331,   2.561e-4
1.332,   2.603e-4
1.333,   2.627e-4
1.334,   2.641e-4
1.335,   2.631e-4
1.336,   2.617e-4
1.337,   2.622e-4
1.338,   2.629e-4
1.339,   2.655e-4
1.340,   2.699e-4
1.341,   2.727e-4
1.342,   2.724e-4
1.343,   2.727e-4
1.344,   2.715e-4
1.345,   2.709e-4
1.346,   2.727e-4
1.347,   2.767e-4
1.348,   2.798e-4
1.349,   2.825e-4
1.350,   2.821e-4
1.351,   2.822e-4
1.352,   2.826e-4
1.353,   2.811e-4
1.354,   2.840e-4
1.355,   2.875e-4
1.356,   2.917e-4
1.357,   2.937e-4
1.358,   2.938e-4
1.359,   2.939e-4
1.360,   2.947e-4
1.361,   2.949e-4
1.362,   2.965e-4
1.363,   3.005e-4
1.364,   3.060e-4
1.365,   3.079e-4
1.366,   3.076e-4
1.367,   3.078e-4
1.368,   3.089e-4
1.369,   3.091e-4
1.370,   3.119e-4
1.371,   3.178e-4
1.372,   3.232e-4
1.373,   3.234e-4
1.374,   3.245e-4
1.375,   3.233e-4
1.376,   3.250e-4
1.377,   3.292e-4
1.378,   3.306e-4
1.379,   3.370e-4
1.380,   3.422e-4
1.381,   3.429e-4
1.382,   3.439e-4
1.383,   3.429e-4
1.384,   3.464e-4
1.385,   3.478e-4
1.386,   3.541e-4
1.387,   3.616e-4
1.388,   3.651e-4
1.389,   3.671e-4
1.390,   3.695e-4
1.391,   3.698e-4
1.392,   3.723e-4
1.393,   3.756e-4
1.394,   3.820e-4
1.395,   3.907e-4
1.396,   3.962e-4
1.397,   3.991e-4
1.398,   4.002e-4
1.399,   4.052e-4
1.400,   4.087e-4
1.401,   4.117e-4
1.402,   4.208e-4
1.403,   4.319e-4
1.404,   4.383e-4
1.405,   4.432e-4
1.406,   4.459e-4
1.407,   4.510e-4
1.408,   4.602e-4
1.409,   4.656e-4
1.410,   4.777e-4
1.411,   4.921e-4
1.412,   5.002e-4
1.413,   5.065e-4
1.414,   5.131e-4
1.415,   5.200e-4
1.416,   5.302e-4
1.417,   5.398e-4
1.418,   5.598e-4
1.419,   5.773e-4
1.420,   5.890e-4
1.421,   6.017e-4
1.422,   6.095e-4
1.423,   6.222e-4
1.424,   6.369e-4
1.425,   6.569e-4
1.426,   6.819e-4
1.427,   7.083e-4
1.428,   7.319e-4
1.429,   7.493e-4
1.430,   7.650e-4
1.431,   7.879e-4
1.432,   8.101e-4
1.433,   8.365e-4
1.434,   8.756e-4
1.435,   9.074e-4
1.436,   9.402e-4
1.437,   9.667e-4
1.438,   9.935e-4
1.439,   1.031e-3
1.440,   1.068e-3
1.441,   1.112e-3
1.442,   1.167e-3
1.443,   1.215e-3
1.444,   1.257e-3
1.445,   1.302e-3
1.446,   1.340e-3
1.447,   1.389e-3
1.448,   1.444e-3
1.449,   1.516e-3
1.450,   1.582e-3
1.451,   1.659e-3
1.452,   1.719e-3
1.453,   1.777e-3
1.454,   1.832e-3
1.455,   1.898e-3
1.456,   1.971e-3
1.457,   2.056e-3
1.458,   2.149e-3
1.459,   2.245e-3
1.460,   2.326e-3
1.461,   2.398e-3
1.462,   2.474e-3
1.463,   2.569e-3
1.464,   2.668e-3
1.465,   2.787e-3
1.466,   2.906e-3
1.467,   3.032e-3
1.468,   3.135e-3
1.469,   3.227e-3
1.470,   3.326e-3
1.471,   3.428e-3
1.472,   3.534e-3
1.473,   3.685e-3
1.474,   3.836e-3
1.475,   3.989e-3
1.476,   4.125e-3
1.477,   4.222e-3
1.478,   4.316e-3
1.479,   4.417e-3
1.480,   4.550e-3
1.481,   4.745e-3
1.482,   4.934e-3
1.483,   5.059e-3
1.484,   5.165e-3
1.485,   5.312e-3
1.486,   5.425e-3
1.487,   5.542e-3
1.488,   5.678e-3
1.489,   5.873e-3
1.490,   6.066e-3
1.491,   6.224e-3
1.492,   6.340e-3
1.493,   6.418e-3
1.494,   6.480e-3
1.495,   6.573e-3
1.496,   6.751e-3
1.497,   6.898e-3
1.498,   7.110e-3
1.499,   7.278e-3
1.500,   7.357e-3
1.501,   7.500e-3
1.502,   7.564e-3
1.503,   7.612e-3
1.504,   7.802e-3
1.505,   7.984e-3
1.506,   8.151e-3
1.507,   8.254e-3
1.508,   8.269e-3
1.509,   8.284e-3
1.510,   8.294e-3
1.511,   8.359e-3
1.512,   8.567e-3
1.513,   8.741e-3
1.514,   8.892e-3
1.515,   8.951e-3
1.516,   9.013e-3
1.517,   9.032e-3
1.518,   9.028e-3
1.519,   9.075e-3
1.520,   9.103e-3
1.521,   9.173e-3
1.522,   9.245e-3
1.523,   9.278e-3
1.524,   9.216e-3
1.525,   9.230e-3
1.526,   9.223e-3
1.527,   9.269e-3
1.528,   9.354e-3
1.529,   9.442e-3
1.530,   9.487e-3