File: Experimental Records, Raw Data, and Supplementary Notes and Figures/batch5/final400/B5_BEST_400_#1_High_Quality(#21)-245mV.txt
May 31, 2023   15:53:30
Linear Sweep Voltammetry
File: d:\current work\al_oer\electrochemical test data\batch 5\400\B5_BEST_400_#1_High_Quality(#21)-245mV.txt
Data Source:  Experiment
Instrument Model:  CHI660E
Header:
Note:

Init E (V) = 0.901

Final E (V) = 1.570

Scan Rate (V/s) = 0.010
Sample Interval (V) = 0.001
Quiet Time (sec) = 2
Sensitivity (A/V) = 0.001
Comp R (ohm) = 6.3

Results:

Channel 1:

Potential/V, Current/A
0.901,   1.463e-4
0.902,   1.598e-4
0.903,   1.618e-4
0.904,   1.627e-4
0.905,   1.613e-4
0.906,   1.598e-4
0.907,   1.591e-4
0.908,   1.584e-4
0.909,   1.584e-4
0.910,   1.574e-4
0.911,   1.561e-4
0.912,   1.548e-4
0.913,   1.533e-4
0.914,   1.526e-4
0.915,   1.518e-4
0.916,   1.514e-4
0.917,   1.505e-4
0.918,   1.492e-4
0.919,   1.479e-4
0.920,   1.470e-4
0.921,   1.464e-4
0.922,   1.459e-4
0.923,   1.453e-4
0.924,   1.441e-4
0.925,   1.431e-4
0.926,   1.418e-4
0.927,   1.412e-4
0.928,   1.402e-4
0.929,   1.405e-4
0.930,   1.396e-4
0.931,   1.385e-4
0.932,   1.376e-4
0.933,   1.372e-4
0.934,   1.364e-4
0.935,   1.367e-4
0.936,   1.360e-4
0.937,   1.346e-4
0.938,   1.337e-4
0.939,   1.336e-4
0.940,   1.328e-4
0.941,   1.328e-4
0.942,   1.323e-4
0.943,   1.313e-4
0.944,   1.305e-4
0.945,   1.299e-4
0.946,   1.301e-4
0.947,   1.293e-4
0.948,   1.290e-4
0.949,   1.283e-4
0.950,   1.278e-4
0.951,   1.267e-4
0.952,   1.264e-4
0.953,   1.261e-4
0.954,   1.264e-4
0.955,   1.257e-4
0.956,   1.249e-4
0.957,   1.245e-4
0.958,   1.241e-4
0.959,   1.238e-4
0.960,   1.237e-4
0.961,   1.233e-4
0.962,   1.224e-4
0.963,   1.220e-4
0.964,   1.215e-4
0.965,   1.215e-4
0.966,   1.212e-4
0.967,   1.211e-4
0.968,   1.205e-4
0.969,   1.195e-4
0.970,   1.193e-4
0.971,   1.192e-4
0.972,   1.190e-4
0.973,   1.192e-4
0.974,   1.190e-4
0.975,   1.178e-4
0.976,   1.172e-4
0.977,   1.170e-4
0.978,   1.171e-4
0.979,   1.173e-4
0.980,   1.171e-4
0.981,   1.160e-4
0.982,   1.162e-4
0.983,   1.158e-4
0.984,   1.158e-4
0.985,   1.155e-4
0.986,   1.157e-4
0.987,   1.149e-4
0.988,   1.142e-4
0.989,   1.140e-4
0.990,   1.143e-4
0.991,   1.140e-4
0.992,   1.141e-4
0.993,   1.135e-4
0.994,   1.126e-4
0.995,   1.124e-4
0.996,   1.126e-4
0.997,   1.129e-4
0.998,   1.129e-4
0.999,   1.124e-4
1.000,   1.118e-4
1.001,   1.111e-4
1.002,   1.114e-4
1.003,   1.117e-4
1.004,   1.119e-4
1.005,   1.115e-4
1.006,   1.108e-4
1.007,   1.104e-4
1.008,   1.102e-4
1.009,   1.106e-4
1.010,   1.106e-4
1.011,   1.102e-4
1.012,   1.099e-4
1.013,   1.095e-4
1.014,   1.093e-4
1.015,   1.097e-4
1.016,   1.099e-4
1.017,   1.100e-4
1.018,   1.096e-4
1.019,   1.089e-4
1.020,   1.085e-4
1.021,   1.091e-4
1.022,   1.090e-4
1.023,   1.093e-4
1.024,   1.093e-4
1.025,   1.086e-4
1.026,   1.080e-4
1.027,   1.080e-4
1.028,   1.087e-4
1.029,   1.081e-4
1.030,   1.083e-4
1.031,   1.082e-4
1.032,   1.071e-4
1.033,   1.073e-4
1.034,   1.085e-4
1.035,   1.080e-4
1.036,   1.080e-4
1.037,   1.079e-4
1.038,   1.071e-4
1.039,   1.069e-4
1.040,   1.078e-4
1.041,   1.077e-4
1.042,   1.082e-4
1.043,   1.077e-4
1.044,   1.069e-4
1.045,   1.066e-4
1.046,   1.073e-4
1.047,   1.075e-4
1.048,   1.079e-4
1.049,   1.074e-4
1.050,   1.068e-4
1.051,   1.063e-4
1.052,   1.068e-4
1.053,   1.082e-4
1.054,   1.081e-4
1.055,   1.075e-4
1.056,   1.070e-4
1.057,   1.063e-4
1.058,   1.061e-4
1.059,   1.071e-4
1.060,   1.080e-4
1.061,   1.073e-4
1.062,   1.073e-4
1.063,   1.067e-4
1.064,   1.065e-4
1.065,   1.071e-4
1.066,   1.077e-4
1.067,   1.079e-4
1.068,   1.073e-4
1.069,   1.066e-4
1.070,   1.063e-4
1.071,   1.069e-4
1.072,   1.077e-4
1.073,   1.080e-4
1.074,   1.076e-4
1.075,   1.070e-4
1.076,   1.062e-4
1.077,   1.069e-4
1.078,   1.080e-4
1.079,   1.086e-4
1.080,   1.087e-4
1.081,   1.076e-4
1.082,   1.070e-4
1.083,   1.074e-4
1.084,   1.081e-4
1.085,   1.085e-4
1.086,   1.087e-4
1.087,   1.083e-4
1.088,   1.076e-4
1.089,   1.076e-4
1.090,   1.086e-4
1.091,   1.089e-4
1.092,   1.094e-4
1.093,   1.091e-4
1.094,   1.083e-4
1.095,   1.080e-4
1.096,   1.091e-4
1.097,   1.096e-4
1.098,   1.099e-4
1.099,   1.099e-4
1.100,   1.091e-4
1.101,   1.085e-4
1.102,   1.093e-4
1.103,   1.102e-4
1.104,   1.106e-4
1.105,   1.103e-4
1.106,   1.097e-4
1.107,   1.095e-4
1.108,   1.089e-4
1.109,   1.109e-4
1.110,   1.113e-4
1.111,   1.116e-4
1.112,   1.112e-4
1.113,   1.102e-4
1.114,   1.103e-4
1.115,   1.118e-4
1.116,   1.127e-4
1.117,   1.130e-4
1.118,   1.120e-4
1.119,   1.114e-4
1.120,   1.120e-4
1.121,   1.126e-4
1.122,   1.132e-4
1.123,   1.137e-4
1.124,   1.136e-4
1.125,   1.129e-4
1.126,   1.122e-4
1.127,   1.134e-4
1.128,   1.144e-4
1.129,   1.144e-4
1.130,   1.152e-4
1.131,   1.146e-4
1.132,   1.137e-4
1.133,   1.141e-4
1.134,   1.150e-4
1.135,   1.154e-4
1.136,   1.161e-4
1.137,   1.156e-4
1.138,   1.152e-4
1.139,   1.150e-4
1.140,   1.160e-4
1.141,   1.168e-4
1.142,   1.173e-4
1.143,   1.172e-4
1.144,   1.168e-4
1.145,   1.162e-4
1.146,   1.168e-4
1.147,   1.180e-4
1.148,   1.180e-4
1.149,   1.181e-4
1.150,   1.180e-4
1.151,   1.174e-4
1.152,   1.178e-4
1.153,   1.190e-4
1.154,   1.197e-4
1.155,   1.200e-4
1.156,   1.194e-4
1.157,   1.189e-4
1.158,   1.190e-4
1.159,   1.203e-4
1.160,   1.208e-4
1.161,   1.212e-4
1.162,   1.212e-4
1.163,   1.202e-4
1.164,   1.200e-4
1.165,   1.213e-4
1.166,   1.226e-4
1.167,   1.218e-4
1.168,   1.224e-4
1.169,   1.220e-4
1.170,   1.217e-4
1.171,   1.226e-4
1.172,   1.233e-4
1.173,   1.236e-4
1.174,   1.237e-4
1.175,   1.234e-4
1.176,   1.231e-4
1.177,   1.232e-4
1.178,   1.243e-4
1.179,   1.249e-4
1.180,   1.252e-4
1.181,   1.248e-4
1.182,   1.243e-4
1.183,   1.242e-4
1.184,   1.252e-4
1.185,   1.255e-4
1.186,   1.260e-4
1.187,   1.261e-4
1.188,   1.254e-4
1.189,   1.254e-4
1.190,   1.257e-4
1.191,   1.269e-4
1.192,   1.274e-4
1.193,   1.270e-4
1.194,   1.268e-4
1.195,   1.263e-4
1.196,   1.263e-4
1.197,   1.279e-4
1.198,   1.284e-4
1.199,   1.283e-4
1.200,   1.278e-4
1.201,   1.274e-4
1.202,   1.267e-4
1.203,   1.287e-4
1.204,   1.294e-4
1.205,   1.298e-4
1.206,   1.292e-4
1.207,   1.288e-4
1.208,   1.287e-4
1.209,   1.296e-4
1.210,   1.310e-4
1.211,   1.304e-4
1.212,   1.303e-4
1.213,   1.310e-4
1.214,   1.297e-4
1.215,   1.297e-4
1.216,   1.315e-4
1.217,   1.318e-4
1.218,   1.316e-4
1.219,   1.306e-4
1.220,   1.306e-4
1.221,   1.305e-4
1.222,   1.320e-4
1.223,   1.327e-4
1.224,   1.334e-4
1.225,   1.329e-4
1.226,   1.324e-4
1.227,   1.306e-4
1.228,   1.339e-4
1.229,   1.348e-4
1.230,   1.353e-4
1.231,   1.339e-4
1.232,   1.325e-4
1.233,   1.320e-4
1.234,   1.333e-4
1.235,   1.344e-4
1.236,   1.351e-4
1.237,   1.352e-4
1.238,   1.343e-4
1.239,   1.335e-4
1.240,   1.344e-4
1.241,   1.353e-4
1.242,   1.358e-4
1.243,   1.364e-4
1.244,   1.355e-4
1.245,   1.356e-4
1.246,   1.348e-4
1.247,   1.358e-4
1.248,   1.362e-4
1.249,   1.369e-4
1.250,   1.364e-4
1.251,   1.358e-4
1.252,   1.355e-4
1.253,   1.366e-4
1.254,   1.371e-4
1.255,   1.380e-4
1.256,   1.377e-4
1.257,   1.367e-4
1.258,   1.362e-4
1.259,   1.370e-4
1.260,   1.377e-4
1.261,   1.386e-4
1.262,   1.387e-4
1.263,   1.380e-4
1.264,   1.374e-4
1.265,   1.377e-4
1.266,   1.392e-4
1.267,   1.386e-4
1.268,   1.396e-4
1.269,   1.387e-4
1.270,   1.386e-4
1.271,   1.380e-4
1.272,   1.392e-4
1.273,   1.397e-4
1.274,   1.406e-4
1.275,   1.399e-4
1.276,   1.390e-4
1.277,   1.387e-4
1.278,   1.395e-4
1.279,   1.413e-4
1.280,   1.421e-4
1.281,   1.414e-4
1.282,   1.404e-4
1.283,   1.395e-4
1.284,   1.401e-4
1.285,   1.412e-4
1.286,   1.419e-4
1.287,   1.416e-4
1.288,   1.412e-4
1.289,   1.402e-4
1.290,   1.417e-4
1.291,   1.425e-4
1.292,   1.427e-4
1.293,   1.432e-4
1.294,   1.426e-4
1.295,   1.411e-4
1.296,   1.416e-4
1.297,   1.427e-4
1.298,   1.437e-4
1.299,   1.444e-4
1.300,   1.439e-4
1.301,   1.427e-4
1.302,   1.425e-4
1.303,   1.424e-4
1.304,   1.446e-4
1.305,   1.449e-4
1.306,   1.456e-4
1.307,   1.444e-4
1.308,   1.429e-4
1.309,   1.441e-4
1.310,   1.454e-4
1.311,   1.467e-4
1.312,   1.468e-4
1.313,   1.457e-4
1.314,   1.449e-4
1.315,   1.454e-4
1.316,   1.464e-4
1.317,   1.470e-4
1.318,   1.475e-4
1.319,   1.472e-4
1.320,   1.463e-4
1.321,   1.459e-4
1.322,   1.468e-4
1.323,   1.491e-4
1.324,   1.483e-4
1.325,   1.488e-4
1.326,   1.479e-4
1.327,   1.480e-4
1.328,   1.491e-4
1.329,   1.506e-4
1.330,   1.508e-4
1.331,   1.501e-4
1.332,   1.499e-4
1.333,   1.504e-4
1.334,   1.504e-4
1.335,   1.515e-4
1.336,   1.524e-4
1.337,   1.528e-4
1.338,   1.531e-4
1.339,   1.520e-4
1.340,   1.526e-4
1.341,   1.531e-4
1.342,   1.536e-4
1.343,   1.550e-4
1.344,   1.546e-4
1.345,   1.540e-4
1.346,   1.546e-4
1.347,   1.556e-4
1.348,   1.563e-4
1.349,   1.578e-4
1.350,   1.574e-4
1.351,   1.568e-4
1.352,   1.582e-4
1.353,   1.586e-4
1.354,   1.594e-4
1.355,   1.595e-4
1.356,   1.605e-4
1.357,   1.602e-4
1.358,   1.601e-4
1.359,   1.611e-4
1.360,   1.625e-4
1.361,   1.634e-4
1.362,   1.642e-4
1.363,   1.640e-4
1.364,   1.645e-4
1.365,   1.643e-4
1.366,   1.658e-4
1.367,   1.665e-4
1.368,   1.682e-4
1.369,   1.678e-4
1.370,   1.675e-4
1.371,   1.691e-4
1.372,   1.701e-4
1.373,   1.713e-4
1.374,   1.725e-4
1.375,   1.730e-4
1.376,   1.732e-4
1.377,   1.741e-4
1.378,   1.742e-4
1.379,   1.763e-4
1.380,   1.787e-4
1.381,   1.782e-4
1.382,   1.784e-4
1.383,   1.794e-4
1.384,   1.813e-4
1.385,   1.826e-4
1.386,   1.845e-4
1.387,   1.870e-4
1.388,   1.865e-4
1.389,   1.867e-4
1.390,   1.886e-4
1.391,   1.894e-4
1.392,   1.922e-4
1.393,   1.949e-4
1.394,   1.954e-4
1.395,   1.956e-4
1.396,   1.975e-4
1.397,   2.003e-4
1.398,   2.036e-4
1.399,   2.057e-4
1.400,   2.073e-4
1.401,   2.079e-4
1.402,   2.094e-4
1.403,   2.129e-4
1.404,   2.161e-4
1.405,   2.200e-4
1.406,   2.226e-4
1.407,   2.238e-4
1.408,   2.257e-4
1.409,   2.294e-4
1.410,   2.337e-4
1.411,   2.388e-4
1.412,   2.429e-4
1.413,   2.451e-4
1.414,   2.473e-4
1.415,   2.519e-4
1.416,   2.577e-4
1.417,   2.638e-4
1.418,   2.705e-4
1.419,   2.744e-4
1.420,   2.774e-4
1.421,   2.824e-4
1.422,   2.900e-4
1.423,   2.994e-4
1.424,   3.080e-4
1.425,   3.146e-4
1.426,   3.194e-4
1.427,   3.253e-4
1.428,   3.362e-4
1.429,   3.466e-4
1.430,   3.579e-4
1.431,   3.707e-4
1.432,   3.782e-4
1.433,   3.851e-4
1.434,   3.988e-4
1.435,   4.140e-4
1.436,   4.313e-4
1.437,   4.479e-4
1.438,   4.603e-4
1.439,   4.721e-4
1.440,   4.893e-4
1.441,   5.053e-4
1.442,   5.282e-4
1.443,   5.515e-4
1.444,   5.707e-4
1.445,   5.883e-4
1.446,   6.065e-4
1.447,   6.311e-4
1.448,   6.573e-4
1.449,   6.901e-4
1.450,   7.190e-4
1.451,   7.437e-4
1.452,   7.653e-4
1.453,   7.947e-4
1.454,   8.322e-4
1.455,   8.722e-4
1.456,   9.130e-4
1.457,   9.427e-4
1.458,   9.728e-4
1.459,   1.010e-3
1.460,   1.056e-3
1.461,   1.109e-3
1.462,   1.161e-3
1.463,   1.201e-3
1.464,   1.238e-3
1.465,   1.281e-3
1.466,   1.332e-3
1.467,   1.399e-3
1.468,   1.467e-3
1.469,   1.522e-3
1.470,   1.569e-3
1.471,   1.618e-3
1.472,   1.678e-3
1.473,   1.754e-3
1.474,   1.847e-3
1.475,   1.917e-3
1.476,   1.976e-3
1.477,   2.029e-3
1.478,   2.087e-3
1.479,   2.178e-3
1.480,   2.293e-3
1.481,   2.380e-3
1.482,   2.452e-3
1.483,   2.511e-3
1.484,   2.585e-3
1.485,   2.677e-3
1.486,   2.791e-3
1.487,   2.917e-3
1.488,   2.999e-3
1.489,   3.071e-3
1.490,   3.157e-3
1.491,   3.252e-3
1.492,   3.384e-3
1.493,   3.519e-3
1.494,   3.614e-3
1.495,   3.708e-3
1.496,   3.780e-3
1.497,   3.863e-3
1.498,   3.993e-3
1.499,   4.148e-3
1.500,   4.277e-3
1.501,   4.365e-3
1.502,   4.448e-3
1.503,   4.551e-3
1.504,   4.682e-3
1.505,   4.841e-3
1.506,   5.004e-3
1.507,   5.104e-3
1.508,   5.207e-3
1.509,   5.314e-3
1.510,   5.430e-3
1.511,   5.600e-3
1.512,   5.785e-3
1.513,   5.913e-3
1.514,   6.008e-3
1.515,   6.116e-3
1.516,   6.247e-3
1.517,   6.408e-3
1.518,   6.591e-3
1.519,   6.751e-3
1.520,   6.834e-3
1.521,   6.923e-3
1.522,   7.006e-3
1.523,   7.150e-3
1.524,   7.353e-3
1.525,   7.512e-3
1.526,   7.601e-3
1.527,   7.671e-3
1.528,   7.760e-3
1.529,   7.911e-3
1.530,   8.087e-3
1.531,   8.243e-3
1.532,   8.291e-3
1.533,   8.320e-3
1.534,   8.415e-3
1.535,   8.553e-3
1.536,   8.722e-3
1.537,   8.909e-3
1.538,   9.045e-3
1.539,   9.095e-3
1.540,   9.074e-3
1.541,   9.180e-3
1.542,   9.354e-3
1.543,   9.535e-3
1.544,   9.613e-3
1.545,   9.653e-3
1.546,   9.612e-3
1.547,   9.621e-3
1.548,   9.754e-3
1.549,   9.877e-3
1.550,   9.943e-3
1.551,   9.971e-3
1.552,   1.000e-2
1.553,   1.000e-2
1.554,   1.004e-2
1.555,   1.007e-2
1.556,   1.007e-2
1.557,   1.007e-2
1.558,   1.007e-2
1.559,   1.007e-2
1.560,   1.007e-2
1.561,   1.007e-2
1.562,   1.007e-2
1.563,   1.007e-2
1.564,   1.007e-2
1.565,   1.007e-2
1.566,   1.007e-2
1.567,   1.007e-2
1.568,   1.007e-2
1.569,   1.007e-2
1.570,   1.007e-2