File: Experimental Records, Raw Data, and Supplementary Notes and Figures/batch5/final400/B5_BEST_400_#1_Full(#8)-212mV.txt
May 31, 2023   14:45:34
Linear Sweep Voltammetry
File: d:\current work\al_oer\electrochemical test data\batch 5\400\B5_BEST_400_#1_Full(#8)-212mV.txt
Data Source:  Experiment
Instrument Model:  CHI660E
Header:
Note:

Init E (V) = 0.899

Final E (V) = 1.502

Scan Rate (V/s) = 0.010
Sample Interval (V) = 0.001
Quiet Time (sec) = 2
Sensitivity (A/V) = 0.001
Comp R (ohm) = 6.2

Results:

Channel 1:

Potential/V, Current/A
0.899,   3.171e-4
0.900,   3.472e-4
0.901,   3.546e-4
0.902,   3.568e-4
0.903,   3.555e-4
0.904,   3.541e-4
0.905,   3.560e-4
0.906,   3.538e-4
0.907,   3.520e-4
0.908,   3.490e-4
0.909,   3.478e-4
0.910,   3.461e-4
0.911,   3.432e-4
0.912,   3.400e-4
0.913,   3.414e-4
0.914,   3.369e-4
0.915,   3.356e-4
0.916,   3.325e-4
0.917,   3.327e-4
0.918,   3.287e-4
0.919,   3.261e-4
0.920,   3.244e-4
0.921,   3.261e-4
0.922,   3.221e-4
0.923,   3.189e-4
0.924,   3.182e-4
0.925,   3.171e-4
0.926,   3.155e-4
0.927,   3.123e-4
0.928,   3.112e-4
0.929,   3.104e-4
0.930,   3.087e-4
0.931,   3.075e-4
0.932,   3.052e-4
0.933,   3.047e-4
0.934,   3.037e-4
0.935,   3.000e-4
0.936,   2.991e-4
0.937,   2.988e-4
0.938,   2.971e-4
0.939,   2.961e-4
0.940,   2.952e-4
0.941,   2.934e-4
0.942,   2.923e-4
0.943,   2.891e-4
0.944,   2.893e-4
0.945,   2.900e-4
0.946,   2.874e-4
0.947,   2.872e-4
0.948,   2.849e-4
0.949,   2.857e-4
0.950,   2.840e-4
0.951,   2.825e-4
0.952,   2.816e-4
0.953,   2.818e-4
0.954,   2.796e-4
0.955,   2.798e-4
0.956,   2.786e-4
0.957,   2.802e-4
0.958,   2.771e-4
0.959,   2.743e-4
0.960,   2.754e-4
0.961,   2.742e-4
0.962,   2.734e-4
0.963,   2.738e-4
0.964,   2.732e-4
0.965,   2.735e-4
0.966,   2.712e-4
0.967,   2.689e-4
0.968,   2.699e-4
0.969,   2.711e-4
0.970,   2.685e-4
0.971,   2.682e-4
0.972,   2.678e-4
0.973,   2.682e-4
0.974,   2.680e-4
0.975,   2.654e-4
0.976,   2.665e-4
0.977,   2.661e-4
0.978,   2.642e-4
0.979,   2.637e-4
0.980,   2.633e-4
0.981,   2.643e-4
0.982,   2.612e-4
0.983,   2.604e-4
0.984,   2.637e-4
0.985,   2.619e-4
0.986,   2.610e-4
0.987,   2.613e-4
0.988,   2.604e-4
0.989,   2.612e-4
0.990,   2.595e-4
0.991,   2.574e-4
0.992,   2.592e-4
0.993,   2.600e-4
0.994,   2.592e-4
0.995,   2.584e-4
0.996,   2.578e-4
0.997,   2.594e-4
0.998,   2.574e-4
0.999,   2.560e-4
1.000,   2.577e-4
1.001,   2.588e-4
1.002,   2.565e-4
1.003,   2.556e-4
1.004,   2.551e-4
1.005,   2.580e-4
1.006,   2.556e-4
1.007,   2.544e-4
1.008,   2.550e-4
1.009,   2.561e-4
1.010,   2.546e-4
1.011,   2.555e-4
1.012,   2.559e-4
1.013,   2.556e-4
1.014,   2.540e-4
1.015,   2.523e-4
1.016,   2.543e-4
1.017,   2.545e-4
1.018,   2.539e-4
1.019,   2.555e-4
1.020,   2.549e-4
1.021,   2.543e-4
1.022,   2.530e-4
1.023,   2.531e-4
1.024,   2.553e-4
1.025,   2.539e-4
1.026,   2.525e-4
1.027,   2.545e-4
1.028,   2.547e-4
1.029,   2.533e-4
1.030,   2.529e-4
1.031,   2.529e-4
1.032,   2.530e-4
1.033,   2.533e-4
1.034,   2.546e-4
1.035,   2.534e-4
1.036,   2.543e-4
1.037,   2.540e-4
1.038,   2.532e-4
1.039,   2.523e-4
1.040,   2.537e-4
1.041,   2.538e-4
1.042,   2.548e-4
1.043,   2.546e-4
1.044,   2.548e-4
1.045,   2.543e-4
1.046,   2.530e-4
1.047,   2.533e-4
1.048,   2.543e-4
1.049,   2.551e-4
1.050,   2.553e-4
1.051,   2.543e-4
1.052,   2.553e-4
1.053,   2.557e-4
1.054,   2.545e-4
1.055,   2.541e-4
1.056,   2.559e-4
1.057,   2.541e-4
1.058,   2.553e-4
1.059,   2.555e-4
1.060,   2.576e-4
1.061,   2.574e-4
1.062,   2.551e-4
1.063,   2.562e-4
1.064,   2.569e-4
1.065,   2.560e-4
1.066,   2.567e-4
1.067,   2.581e-4
1.068,   2.596e-4
1.069,   2.581e-4
1.070,   2.568e-4
1.071,   2.573e-4
1.072,   2.593e-4
1.073,   2.585e-4
1.074,   2.603e-4
1.075,   2.590e-4
1.076,   2.605e-4
1.077,   2.601e-4
1.078,   2.585e-4
1.079,   2.615e-4
1.080,   2.615e-4
1.081,   2.601e-4
1.082,   2.609e-4
1.083,   2.615e-4
1.084,   2.623e-4
1.085,   2.612e-4
1.086,   2.602e-4
1.087,   2.626e-4
1.088,   2.640e-4
1.089,   2.625e-4
1.090,   2.635e-4
1.091,   2.649e-4
1.092,   2.653e-4
1.093,   2.626e-4
1.094,   2.629e-4
1.095,   2.641e-4
1.096,   2.660e-4
1.097,   2.668e-4
1.098,   2.648e-4
1.099,   2.673e-4
1.100,   2.685e-4
1.101,   2.677e-4
1.102,   2.665e-4
1.103,   2.675e-4
1.104,   2.667e-4
1.105,   2.689e-4
1.106,   2.684e-4
1.107,   2.697e-4
1.108,   2.725e-4
1.109,   2.698e-4
1.110,   2.690e-4
1.111,   2.712e-4
1.112,   2.703e-4
1.113,   2.719e-4
1.114,   2.724e-4
1.115,   2.735e-4
1.116,   2.736e-4
1.117,   2.726e-4
1.118,   2.725e-4
1.119,   2.745e-4
1.120,   2.744e-4
1.121,   2.751e-4
1.122,   2.757e-4
1.123,   2.780e-4
1.124,   2.780e-4
1.125,   2.755e-4
1.126,   2.756e-4
1.127,   2.775e-4
1.128,   2.783e-4
1.129,   2.790e-4
1.130,   2.802e-4
1.131,   2.802e-4
1.132,   2.813e-4
1.133,   2.794e-4
1.134,   2.802e-4
1.135,   2.800e-4
1.136,   2.827e-4
1.137,   2.836e-4
1.138,   2.845e-4
1.139,   2.844e-4
1.140,   2.840e-4
1.141,   2.831e-4
1.142,   2.818e-4
1.143,   2.853e-4
1.144,   2.845e-4
1.145,   2.872e-4
1.146,   2.872e-4
1.147,   2.893e-4
1.148,   2.881e-4
1.149,   2.863e-4
1.150,   2.888e-4
1.151,   2.895e-4
1.152,   2.881e-4
1.153,   2.900e-4
1.154,   2.919e-4
1.155,   2.921e-4
1.156,   2.910e-4
1.157,   2.904e-4
1.158,   2.896e-4
1.159,   2.920e-4
1.160,   2.946e-4
1.161,   2.953e-4
1.162,   2.934e-4
1.163,   2.971e-4
1.164,   2.966e-4
1.165,   2.937e-4
1.166,   2.957e-4
1.167,   2.960e-4
1.168,   2.969e-4
1.169,   2.981e-4
1.170,   2.993e-4
1.171,   3.009e-4
1.172,   2.996e-4
1.173,   2.970e-4
1.174,   2.984e-4
1.175,   3.001e-4
1.176,   3.015e-4
1.177,   3.032e-4
1.178,   3.023e-4
1.179,   3.046e-4
1.180,   3.039e-4
1.181,   3.004e-4
1.182,   3.020e-4
1.183,   3.056e-4
1.184,   3.034e-4
1.185,   3.042e-4
1.186,   3.072e-4
1.187,   3.104e-4
1.188,   3.086e-4
1.189,   3.063e-4
1.190,   3.081e-4
1.191,   3.089e-4
1.192,   3.088e-4
1.193,   3.077e-4
1.194,   3.109e-4
1.195,   3.148e-4
1.196,   3.126e-4
1.197,   3.083e-4
1.198,   3.121e-4
1.199,   3.109e-4
1.200,   3.126e-4
1.201,   3.152e-4
1.202,   3.184e-4
1.203,   3.187e-4
1.204,   3.134e-4
1.205,   3.118e-4
1.206,   3.147e-4
1.207,   3.176e-4
1.208,   3.165e-4
1.209,   3.187e-4
1.210,   3.188e-4
1.211,   3.213e-4
1.212,   3.203e-4
1.213,   3.185e-4
1.214,   3.165e-4
1.215,   3.201e-4
1.216,   3.222e-4
1.217,   3.215e-4
1.218,   3.232e-4
1.219,   3.262e-4
1.220,   3.241e-4
1.221,   3.231e-4
1.222,   3.232e-4
1.223,   3.243e-4
1.224,   3.241e-4
1.225,   3.264e-4
1.226,   3.289e-4
1.227,   3.312e-4
1.228,   3.292e-4
1.229,   3.232e-4
1.230,   3.254e-4
1.231,   3.297e-4
1.232,   3.293e-4
1.233,   3.286e-4
1.234,   3.337e-4
1.235,   3.350e-4
1.236,   3.312e-4
1.237,   3.270e-4
1.238,   3.310e-4
1.239,   3.335e-4
1.240,   3.329e-4
1.241,   3.315e-4
1.242,   3.358e-4
1.243,   3.386e-4
1.244,   3.346e-4
1.245,   3.333e-4
1.246,   3.360e-4
1.247,   3.335e-4
1.248,   3.354e-4
1.249,   3.385e-4
1.250,   3.416e-4
1.251,   3.406e-4
1.252,   3.366e-4
1.253,   3.358e-4
1.254,   3.400e-4
1.255,   3.382e-4
1.256,   3.400e-4
1.257,   3.411e-4
1.258,   3.434e-4
1.259,   3.438e-4
1.260,   3.425e-4
1.261,   3.414e-4
1.262,   3.451e-4
1.263,   3.437e-4
1.264,   3.437e-4
1.265,   3.452e-4
1.266,   3.496e-4
1.267,   3.492e-4
1.268,   3.461e-4
1.269,   3.445e-4
1.270,   3.472e-4
1.271,   3.460e-4
1.272,   3.491e-4
1.273,   3.528e-4
1.274,   3.507e-4
1.275,   3.512e-4
1.276,   3.488e-4
1.277,   3.499e-4
1.278,   3.531e-4
1.279,   3.508e-4
1.280,   3.514e-4
1.281,   3.541e-4
1.282,   3.580e-4
1.283,   3.560e-4
1.284,   3.536e-4
1.285,   3.511e-4
1.286,   3.563e-4
1.287,   3.539e-4
1.288,   3.574e-4
1.289,   3.588e-4
1.290,   3.608e-4
1.291,   3.598e-4
1.292,   3.584e-4
1.293,   3.580e-4
1.294,   3.616e-4
1.295,   3.588e-4
1.296,   3.602e-4
1.297,   3.634e-4
1.298,   3.670e-4
1.299,   3.676e-4
1.300,   3.601e-4
1.301,   3.617e-4
1.302,   3.635e-4
1.303,   3.625e-4
1.304,   3.659e-4
1.305,   3.695e-4
1.306,   3.701e-4
1.307,   3.689e-4
1.308,   3.659e-4
1.309,   3.674e-4
1.310,   3.696e-4
1.311,   3.702e-4
1.312,   3.708e-4
1.313,   3.740e-4
1.314,   3.765e-4
1.315,   3.767e-4
1.316,   3.698e-4
1.317,   3.753e-4
1.318,   3.757e-4
1.319,   3.749e-4
1.320,   3.769e-4
1.321,   3.784e-4
1.322,   3.815e-4
1.323,   3.820e-4
1.324,   3.797e-4
1.325,   3.820e-4
1.326,   3.824e-4
1.327,   3.816e-4
1.328,   3.825e-4
1.329,   3.850e-4
1.330,   3.871e-4
1.331,   3.877e-4
1.332,   3.851e-4
1.333,   3.912e-4
1.334,   3.903e-4
1.335,   3.892e-4
1.336,   3.927e-4
1.337,   3.921e-4
1.338,   3.944e-4
1.339,   3.945e-4
1.340,   3.970e-4
1.341,   3.937e-4
1.342,   3.973e-4
1.343,   3.960e-4
1.344,   4.001e-4
1.345,   4.028e-4
1.346,   4.022e-4
1.347,   4.044e-4
1.348,   4.028e-4
1.349,   4.087e-4
1.350,   4.063e-4
1.351,   4.082e-4
1.352,   4.096e-4
1.353,   4.110e-4
1.354,   4.134e-4
1.355,   4.133e-4
1.356,   4.177e-4
1.357,   4.187e-4
1.358,   4.148e-4
1.359,   4.189e-4
1.360,   4.233e-4
1.361,   4.247e-4
1.362,   4.258e-4
1.363,   4.278e-4
1.364,   4.285e-4
1.365,   4.349e-4
1.366,   4.332e-4
1.367,   4.324e-4
1.368,   4.361e-4
1.369,   4.401e-4
1.370,   4.433e-4
1.371,   4.417e-4
1.372,   4.433e-4
1.373,   4.495e-4
1.374,   4.456e-4
1.375,   4.519e-4
1.376,   4.545e-4
1.377,   4.617e-4
1.378,   4.612e-4
1.379,   4.581e-4
1.380,   4.632e-4
1.381,   4.688e-4
1.382,   4.688e-4
1.383,   4.740e-4
1.384,   4.771e-4
1.385,   4.843e-4
1.386,   4.886e-4
1.387,   4.856e-4
1.388,   4.952e-4
1.389,   4.961e-4
1.390,   5.003e-4
1.391,   5.048e-4
1.392,   5.079e-4
1.393,   5.204e-4
1.394,   5.227e-4
1.395,   5.202e-4
1.396,   5.223e-4
1.397,   5.366e-4
1.398,   5.403e-4
1.399,   5.495e-4
1.400,   5.564e-4
1.401,   5.736e-4
1.402,   5.730e-4
1.403,   5.733e-4
1.404,   5.836e-4
1.405,   5.980e-4
1.406,   6.065e-4
1.407,   6.175e-4
1.408,   6.316e-4
1.409,   6.473e-4
1.410,   6.555e-4
1.411,   6.607e-4
1.412,   6.782e-4
1.413,   6.994e-4
1.414,   7.095e-4
1.415,   7.277e-4
1.416,   7.515e-4
1.417,   7.724e-4
1.418,   7.862e-4
1.419,   8.039e-4
1.420,   8.269e-4
1.421,   8.692e-4
1.422,   8.872e-4
1.423,   9.065e-4
1.424,   9.441e-4
1.425,   9.766e-4
1.426,   1.003e-3
1.427,   1.035e-3
1.428,   1.088e-3
1.429,   1.140e-3
1.430,   1.169e-3
1.431,   1.213e-3
1.432,   1.266e-3
1.433,   1.318e-3
1.434,   1.370e-3
1.435,   1.411e-3
1.436,   1.488e-3
1.437,   1.569e-3
1.438,   1.621e-3
1.439,   1.673e-3
1.440,   1.763e-3
1.441,   1.845e-3
1.442,   1.919e-3
1.443,   1.963e-3
1.444,   2.075e-3
1.445,   2.194e-3
1.446,   2.279e-3
1.447,   2.381e-3
1.448,   2.480e-3
1.449,   2.591e-3
1.450,   2.702e-3
1.451,   2.816e-3
1.452,   2.949e-3
1.453,   3.108e-3
1.454,   3.253e-3
1.455,   3.341e-3
1.456,   3.514e-3
1.457,   3.693e-3
1.458,   3.853e-3
1.459,   3.958e-3
1.460,   4.109e-3
1.461,   4.222e-3
1.462,   4.379e-3
1.463,   4.600e-3
1.464,   4.860e-3
1.465,   5.041e-3
1.466,   5.216e-3
1.467,   5.387e-3
1.468,   5.606e-3
1.469,   5.846e-3
1.470,   6.031e-3
1.471,   6.236e-3
1.472,   6.531e-3
1.473,   6.824e-3
1.474,   6.929e-3
1.475,   7.139e-3
1.476,   7.434e-3
1.477,   7.671e-3
1.478,   7.833e-3
1.479,   8.034e-3
1.480,   8.311e-3
1.481,   8.638e-3
1.482,   8.822e-3
1.483,   8.877e-3
1.484,   9.111e-3
1.485,   9.296e-3
1.486,   9.437e-3
1.487,   9.595e-3
1.488,   9.767e-3
1.489,   9.834e-3
1.490,   9.881e-3
1.491,   9.095e-3
1.492,   9.603e-3
1.493,   1.003e-2
1.494,   8.906e-3
1.495,   5.512e-3
1.496,   7.221e-3
1.497,   4.781e-3
1.498,   5.196e-3
1.499,   4.864e-3
1.500,   4.997e-3
1.501,   4.798e-3
1.502,   4.766e-3