File: Experimental Records, Raw Data, and Supplementary Notes and Figures/batch5/final400/B5_BEST_400_#1_Full(#9)-200mV.txt
May 31, 2023   15:37:17
Linear Sweep Voltammetry
File: d:\current work\al_oer\electrochemical test data\batch 5\400\B5_BEST_400_#1_Full(#9)-200mV.txt
Data Source:  Experiment
Instrument Model:  CHI660E
Header:
Note:

Init E (V) = 0.900

Final E (V) = 1.516

Scan Rate (V/s) = 0.010
Sample Interval (V) = 0.001
Quiet Time (sec) = 2
Sensitivity (A/V) = 0.001
Comp R (ohm) = 5.9

Results:

Channel 1:
Ep = 1.476V
ip = 9.422e-3A
Ah = 1.093e-2C

Potential/V, Current/A
0.900,   4.079e-4
0.901,   5.169e-4
0.902,   5.163e-4
0.903,   4.879e-4
0.904,   5.255e-4
0.905,   5.118e-4
0.906,   4.806e-4
0.907,   5.204e-4
0.908,   5.049e-4
0.909,   4.748e-4
0.910,   5.121e-4
0.911,   4.908e-4
0.912,   4.666e-4
0.913,   5.051e-4
0.914,   4.769e-4
0.915,   4.611e-4
0.916,   4.961e-4
0.917,   4.676e-4
0.918,   4.510e-4
0.919,   4.868e-4
0.920,   4.560e-4
0.921,   4.476e-4
0.922,   4.784e-4
0.923,   4.503e-4
0.924,   4.409e-4
0.925,   4.707e-4
0.926,   4.418e-4
0.927,   4.371e-4
0.928,   4.641e-4
0.929,   4.300e-4
0.930,   4.365e-4
0.931,   4.548e-4
0.932,   4.245e-4
0.933,   4.309e-4
0.934,   4.478e-4
0.935,   4.196e-4
0.936,   4.267e-4
0.937,   4.454e-4
0.938,   4.116e-4
0.939,   4.216e-4
0.940,   4.415e-4
0.941,   4.056e-4
0.942,   4.185e-4
0.943,   4.406e-4
0.944,   3.955e-4
0.945,   4.167e-4
0.946,   4.350e-4
0.947,   3.941e-4
0.948,   4.160e-4
0.949,   4.232e-4
0.950,   3.901e-4
0.951,   4.146e-4
0.952,   4.226e-4
0.953,   3.895e-4
0.954,   4.088e-4
0.955,   4.189e-4
0.956,   3.833e-4
0.957,   4.072e-4
0.958,   4.165e-4
0.959,   3.799e-4
0.960,   4.035e-4
0.961,   4.107e-4
0.962,   3.813e-4
0.963,   4.056e-4
0.964,   4.057e-4
0.965,   3.740e-4
0.966,   4.096e-4
0.967,   4.011e-4
0.968,   3.751e-4
0.969,   4.075e-4
0.970,   4.001e-4
0.971,   3.730e-4
0.972,   4.161e-4
0.973,   3.907e-4
0.974,   3.731e-4
0.975,   4.107e-4
0.976,   3.850e-4
0.977,   3.733e-4
0.978,   4.084e-4
0.979,   3.819e-4
0.980,   3.742e-4
0.981,   4.035e-4
0.982,   3.793e-4
0.983,   3.763e-4
0.984,   4.002e-4
0.985,   3.780e-4
0.986,   3.758e-4
0.987,   3.995e-4
0.988,   3.765e-4
0.989,   3.776e-4
0.990,   3.972e-4
0.991,   3.744e-4
0.992,   3.789e-4
0.993,   3.976e-4
0.994,   3.705e-4
0.995,   3.802e-4
0.996,   3.934e-4
0.997,   3.658e-4
0.998,   3.870e-4
0.999,   3.912e-4
1.000,   3.629e-4
1.001,   3.872e-4
1.002,   3.888e-4
1.003,   3.646e-4
1.004,   3.872e-4
1.005,   3.843e-4
1.006,   3.646e-4
1.007,   3.883e-4
1.008,   3.840e-4
1.009,   3.638e-4
1.010,   3.901e-4
1.011,   3.828e-4
1.012,   3.631e-4
1.013,   3.888e-4
1.014,   3.806e-4
1.015,   3.626e-4
1.016,   3.922e-4
1.017,   3.780e-4
1.018,   3.644e-4
1.019,   3.907e-4
1.020,   3.799e-4
1.021,   3.623e-4
1.022,   3.923e-4
1.023,   3.747e-4
1.024,   3.667e-4
1.025,   3.923e-4
1.026,   3.752e-4
1.027,   3.634e-4
1.028,   3.932e-4
1.029,   3.753e-4
1.030,   3.630e-4
1.031,   3.966e-4
1.032,   3.731e-4
1.033,   3.667e-4
1.034,   3.971e-4
1.035,   3.696e-4
1.036,   3.740e-4
1.037,   3.912e-4
1.038,   3.684e-4
1.039,   3.723e-4
1.040,   3.915e-4
1.041,   3.727e-4
1.042,   3.729e-4
1.043,   3.918e-4
1.044,   3.683e-4
1.045,   3.783e-4
1.046,   3.902e-4
1.047,   3.661e-4
1.048,   3.778e-4
1.049,   3.946e-4
1.050,   3.662e-4
1.051,   3.885e-4
1.052,   3.898e-4
1.053,   3.646e-4
1.054,   3.882e-4
1.055,   3.895e-4
1.056,   3.648e-4
1.057,   3.942e-4
1.058,   3.854e-4
1.059,   3.666e-4
1.060,   3.955e-4
1.061,   3.841e-4
1.062,   3.656e-4
1.063,   4.001e-4
1.064,   3.806e-4
1.065,   3.656e-4
1.066,   4.010e-4
1.067,   3.836e-4
1.068,   3.637e-4
1.069,   4.046e-4
1.070,   3.816e-4
1.071,   3.697e-4
1.072,   4.007e-4
1.073,   3.801e-4
1.074,   3.685e-4
1.075,   4.078e-4
1.076,   3.811e-4
1.077,   3.731e-4
1.078,   4.047e-4
1.079,   3.849e-4
1.080,   3.716e-4
1.081,   4.101e-4
1.082,   3.837e-4
1.083,   3.727e-4
1.084,   4.108e-4
1.085,   3.809e-4
1.086,   3.792e-4
1.087,   4.130e-4
1.088,   3.776e-4
1.089,   3.837e-4
1.090,   4.122e-4
1.091,   3.802e-4
1.092,   3.860e-4
1.093,   4.121e-4
1.094,   3.788e-4
1.095,   3.891e-4
1.096,   4.110e-4
1.097,   3.785e-4
1.098,   3.890e-4
1.099,   4.135e-4
1.100,   3.838e-4
1.101,   3.905e-4
1.102,   4.110e-4
1.103,   3.865e-4
1.104,   3.952e-4
1.105,   4.149e-4
1.106,   3.847e-4
1.107,   4.011e-4
1.108,   4.152e-4
1.109,   3.804e-4
1.110,   4.095e-4
1.111,   4.167e-4
1.112,   3.828e-4
1.113,   4.148e-4
1.114,   4.153e-4
1.115,   3.793e-4
1.116,   4.174e-4
1.117,   4.142e-4
1.118,   3.811e-4
1.119,   4.255e-4
1.120,   4.144e-4
1.121,   3.809e-4
1.122,   4.348e-4
1.123,   4.107e-4
1.124,   3.829e-4
1.125,   4.392e-4
1.126,   4.160e-4
1.127,   3.797e-4
1.128,   4.441e-4
1.129,   4.094e-4
1.130,   3.856e-4
1.131,   4.512e-4
1.132,   4.050e-4
1.133,   3.852e-4
1.134,   4.561e-4
1.135,   4.032e-4
1.136,   3.953e-4
1.137,   4.611e-4
1.138,   3.983e-4
1.139,   3.961e-4
1.140,   4.580e-4
1.141,   4.059e-4
1.142,   3.984e-4
1.143,   4.589e-4
1.144,   4.022e-4
1.145,   4.043e-4
1.146,   4.597e-4
1.147,   4.022e-4
1.148,   4.106e-4
1.149,   4.615e-4
1.150,   4.051e-4
1.151,   4.170e-4
1.152,   4.627e-4
1.153,   4.051e-4
1.154,   4.239e-4
1.155,   4.572e-4
1.156,   4.049e-4
1.157,   4.358e-4
1.158,   4.626e-4
1.159,   3.997e-4
1.160,   4.374e-4
1.161,   4.608e-4
1.162,   4.009e-4
1.163,   4.445e-4
1.164,   4.631e-4
1.165,   4.038e-4
1.166,   4.473e-4
1.167,   4.583e-4
1.168,   4.030e-4
1.169,   4.566e-4
1.170,   4.600e-4
1.171,   4.067e-4
1.172,   4.689e-4
1.173,   4.516e-4
1.174,   4.072e-4
1.175,   4.762e-4
1.176,   4.530e-4
1.177,   4.131e-4
1.178,   4.767e-4
1.179,   4.522e-4
1.180,   4.156e-4
1.181,   4.821e-4
1.182,   4.530e-4
1.183,   4.175e-4
1.184,   4.887e-4
1.185,   4.531e-4
1.186,   4.190e-4
1.187,   4.880e-4
1.188,   4.524e-4
1.189,   4.296e-4
1.190,   4.854e-4
1.191,   4.590e-4
1.192,   4.252e-4
1.193,   4.974e-4
1.194,   4.529e-4
1.195,   4.295e-4
1.196,   5.081e-4
1.197,   4.533e-4
1.198,   4.345e-4
1.199,   5.026e-4
1.200,   4.549e-4
1.201,   4.411e-4
1.202,   5.016e-4
1.203,   4.609e-4
1.204,   4.442e-4
1.205,   5.097e-4
1.206,   4.580e-4
1.207,   4.527e-4
1.208,   5.139e-4
1.209,   4.494e-4
1.210,   4.656e-4
1.211,   5.106e-4
1.212,   4.513e-4
1.213,   4.688e-4
1.214,   5.110e-4
1.215,   4.536e-4
1.216,   4.787e-4
1.217,   5.132e-4
1.218,   4.512e-4
1.219,   4.890e-4
1.220,   5.074e-4
1.221,   4.459e-4
1.222,   4.970e-4
1.223,   5.059e-4
1.224,   4.563e-4
1.225,   4.940e-4
1.226,   5.075e-4
1.227,   4.591e-4
1.228,   4.996e-4
1.229,   5.137e-4
1.230,   4.657e-4
1.231,   5.072e-4
1.232,   5.054e-4
1.233,   4.679e-4
1.234,   5.127e-4
1.235,   5.059e-4
1.236,   4.785e-4
1.237,   5.082e-4
1.238,   5.143e-4
1.239,   4.686e-4
1.240,   5.236e-4
1.241,   5.086e-4
1.242,   4.729e-4
1.243,   5.368e-4
1.244,   5.059e-4
1.245,   4.701e-4
1.246,   5.382e-4
1.247,   5.060e-4
1.248,   4.847e-4
1.249,   5.441e-4
1.250,   5.012e-4
1.251,   4.809e-4
1.252,   5.612e-4
1.253,   4.954e-4
1.254,   4.834e-4
1.255,   5.647e-4
1.256,   4.960e-4
1.257,   4.924e-4
1.258,   5.618e-4
1.259,   4.968e-4
1.260,   4.944e-4
1.261,   5.557e-4
1.262,   4.954e-4
1.263,   5.040e-4
1.264,   5.641e-4
1.265,   5.013e-4
1.266,   5.061e-4
1.267,   5.610e-4
1.268,   4.988e-4
1.269,   5.142e-4
1.270,   5.599e-4
1.271,   5.026e-4
1.272,   5.163e-4
1.273,   5.697e-4
1.274,   4.985e-4
1.275,   5.236e-4
1.276,   5.624e-4
1.277,   5.062e-4
1.278,   5.349e-4
1.279,   5.632e-4
1.280,   5.041e-4
1.281,   5.499e-4
1.282,   5.684e-4
1.283,   5.030e-4
1.284,   5.493e-4
1.285,   5.632e-4
1.286,   5.032e-4
1.287,   5.671e-4
1.288,   5.594e-4
1.289,   4.932e-4
1.290,   5.745e-4
1.291,   5.607e-4
1.292,   5.032e-4
1.293,   5.745e-4
1.294,   5.562e-4
1.295,   5.096e-4
1.296,   5.748e-4
1.297,   5.642e-4
1.298,   5.153e-4
1.299,   5.864e-4
1.300,   5.565e-4
1.301,   5.136e-4
1.302,   5.944e-4
1.303,   5.613e-4
1.304,   5.208e-4
1.305,   6.046e-4
1.306,   5.539e-4
1.307,   5.259e-4
1.308,   6.066e-4
1.309,   5.495e-4
1.310,   5.349e-4
1.311,   6.067e-4
1.312,   5.667e-4
1.313,   5.425e-4
1.314,   6.215e-4
1.315,   5.659e-4
1.316,   5.365e-4
1.317,   6.260e-4
1.318,   5.656e-4
1.319,   5.415e-4
1.320,   6.273e-4
1.321,   5.540e-4
1.322,   5.541e-4
1.323,   6.394e-4
1.324,   5.696e-4
1.325,   5.535e-4
1.326,   6.366e-4
1.327,   5.693e-4
1.328,   5.638e-4
1.329,   6.375e-4
1.330,   5.757e-4
1.331,   5.710e-4
1.332,   6.499e-4
1.333,   5.693e-4
1.334,   5.856e-4
1.335,   6.413e-4
1.336,   5.716e-4
1.337,   5.995e-4
1.338,   6.487e-4
1.339,   5.734e-4
1.340,   6.149e-4
1.341,   6.523e-4
1.342,   5.776e-4
1.343,   6.259e-4
1.344,   6.583e-4
1.345,   5.795e-4
1.346,   6.399e-4
1.347,   6.580e-4
1.348,   5.880e-4
1.349,   6.494e-4
1.350,   6.644e-4
1.351,   5.893e-4
1.352,   6.625e-4
1.353,   6.707e-4
1.354,   5.927e-4
1.355,   6.810e-4
1.356,   6.654e-4
1.357,   6.121e-4
1.358,   6.860e-4
1.359,   6.722e-4
1.360,   6.103e-4
1.361,   7.075e-4
1.362,   6.805e-4
1.363,   6.154e-4
1.364,   7.259e-4
1.365,   6.756e-4
1.366,   6.323e-4
1.367,   7.414e-4
1.368,   6.859e-4
1.369,   6.448e-4
1.370,   7.534e-4
1.371,   6.934e-4
1.372,   6.551e-4
1.373,   7.706e-4
1.374,   6.933e-4
1.375,   6.866e-4
1.376,   7.857e-4
1.377,   7.018e-4
1.378,   6.930e-4
1.379,   7.999e-4
1.380,   7.046e-4
1.381,   7.091e-4
1.382,   8.200e-4
1.383,   7.236e-4
1.384,   7.340e-4
1.385,   8.402e-4
1.386,   7.291e-4
1.387,   7.616e-4
1.388,   8.643e-4
1.389,   7.524e-4
1.390,   7.796e-4
1.391,   8.748e-4
1.392,   7.715e-4
1.393,   8.194e-4
1.394,   8.924e-4
1.395,   8.004e-4
1.396,   8.536e-4
1.397,   9.286e-4
1.398,   8.215e-4
1.399,   9.013e-4
1.400,   9.594e-4
1.401,   8.492e-4
1.402,   9.498e-4
1.403,   9.950e-4
1.404,   8.935e-4
1.405,   1.003e-3
1.406,   1.038e-3
1.407,   9.498e-4
1.408,   1.062e-3
1.409,   1.089e-3
1.410,   9.990e-4
1.411,   1.159e-3
1.412,   1.142e-3
1.413,   1.064e-3
1.414,   1.246e-3
1.415,   1.214e-3
1.416,   1.155e-3
1.417,   1.347e-3
1.418,   1.327e-3
1.419,   1.255e-3
1.420,   1.496e-3
1.421,   1.433e-3
1.422,   1.368e-3
1.423,   1.641e-3
1.424,   1.575e-3
1.425,   1.532e-3
1.426,   1.801e-3
1.427,   1.730e-3
1.428,   1.713e-3
1.429,   2.025e-3
1.430,   1.930e-3
1.431,   1.938e-3
1.432,   2.268e-3
1.433,   2.162e-3
1.434,   2.210e-3
1.435,   2.562e-3
1.436,   2.415e-3
1.437,   2.500e-3
1.438,   2.906e-3
1.439,   2.734e-3
1.440,   2.893e-3
1.441,   3.263e-3
1.442,   3.140e-3
1.443,   3.339e-3
1.444,   3.767e-3
1.445,   3.670e-3
1.446,   3.837e-3
1.447,   4.305e-3
1.448,   4.138e-3
1.449,   4.484e-3
1.450,   4.977e-3
1.451,   4.747e-3
1.452,   5.198e-3
1.453,   5.647e-3
1.454,   5.410e-3
1.455,   6.034e-3
1.456,   6.422e-3
1.457,   6.179e-3
1.458,   6.929e-3
1.459,   7.191e-3
1.460,   7.034e-3
1.461,   7.673e-3
1.462,   7.971e-3
1.463,   7.809e-3
1.464,   8.444e-3
1.465,   8.661e-3
1.466,   8.498e-3
1.467,   9.091e-3
1.468,   9.262e-3
1.469,   9.211e-3
1.470,   9.643e-3
1.471,   9.748e-3
1.472,   9.780e-3
1.473,   9.983e-3
1.474,   1.002e-2
1.475,   1.005e-2
1.476,   1.007e-2
1.477,   1.007e-2
1.478,   1.007e-2
1.479,   1.007e-2
1.480,   1.007e-2
1.481,   1.007e-2
1.482,   1.007e-2
1.483,   1.007e-2
1.484,   1.007e-2
1.485,   1.007e-2
1.486,   1.007e-2
1.487,   1.007e-2
1.488,   1.007e-2
1.489,   1.007e-2
1.490,   1.007e-2
1.491,   1.007e-2
1.492,   1.006e-2
1.493,   1.002e-2
1.494,   6.938e-3
1.495,   9.397e-3
1.496,   4.765e-3
1.497,   4.112e-3
1.498,   3.953e-3
1.499,   3.980e-3
1.500,   4.070e-3
1.501,   5.206e-3
1.502,   4.972e-3
1.503,   5.089e-3
1.504,   5.057e-3
1.505,   5.828e-3
1.506,   1.004e-2
1.507,   1.007e-2
1.508,   1.007e-2
1.509,   1.007e-2
1.510,   1.007e-2
1.511,   1.007e-2
1.512,   1.007e-2
1.513,   1.007e-2
1.514,   1.007e-2
1.515,   1.007e-2
1.516,   6.331e-3