File: Experimental Records, Raw Data, and Supplementary Notes and Figures/batch5/final400/B5_BEST_400_#1_Full(#15)-223mV.txt
May 30, 2023   19:55:59
Linear Sweep Voltammetry
File: d:\current work\al_oer\electrochemical test data\batch 5\400\B5_BEST_400_#1_Full(#15)-223mV.txt
Data Source:  Experiment
Instrument Model:  CHI660E
Header:
Note:

Init E (V) = 0.900

Final E (V) = 1.511

Scan Rate (V/s) = 0.010
Sample Interval (V) = 0.001
Quiet Time (sec) = 2
Sensitivity (A/V) = 0.001
Comp R (ohm) = 6.5

Results:

Channel 1:
Ep = 1.487V
ip = 4.545e-3A
Ah = 1.546e-2C

Potential/V, Current/A
0.900,   1.432e-4
0.901,   1.462e-4
0.902,   1.428e-4
0.903,   1.388e-4
0.904,   1.361e-4
0.905,   1.326e-4
0.906,   1.301e-4
0.907,   1.267e-4
0.908,   1.238e-4
0.909,   1.219e-4
0.910,   1.186e-4
0.911,   1.166e-4
0.912,   1.143e-4
0.913,   1.120e-4
0.914,   1.100e-4
0.915,   1.083e-4
0.916,   1.060e-4
0.917,   1.047e-4
0.918,   1.026e-4
0.919,   1.009e-4
0.920,   9.968e-5
0.921,   9.778e-5
0.922,   9.665e-5
0.923,   9.529e-5
0.924,   9.362e-5
0.925,   9.258e-5
0.926,   9.141e-5
0.927,   9.021e-5
0.928,   8.905e-5
0.929,   8.786e-5
0.930,   8.701e-5
0.931,   8.649e-5
0.932,   8.442e-5
0.933,   8.424e-5
0.934,   8.310e-5
0.935,   8.238e-5
0.936,   8.169e-5
0.937,   8.073e-5
0.938,   7.994e-5
0.939,   7.913e-5
0.940,   7.856e-5
0.941,   7.758e-5
0.942,   7.688e-5
0.943,   7.619e-5
0.944,   7.577e-5
0.945,   7.501e-5
0.946,   7.452e-5
0.947,   7.431e-5
0.948,   7.278e-5
0.949,   7.266e-5
0.950,   7.206e-5
0.951,   7.180e-5
0.952,   7.090e-5
0.953,   7.062e-5
0.954,   7.007e-5
0.955,   6.965e-5
0.956,   6.912e-5
0.957,   6.880e-5
0.958,   6.871e-5
0.959,   6.773e-5
0.960,   6.797e-5
0.961,   6.680e-5
0.962,   6.672e-5
0.963,   6.676e-5
0.964,   6.560e-5
0.965,   6.561e-5
0.966,   6.535e-5
0.967,   6.517e-5
0.968,   6.461e-5
0.969,   6.459e-5
0.970,   6.353e-5
0.971,   6.385e-5
0.972,   6.324e-5
0.973,   6.303e-5
0.974,   6.315e-5
0.975,   6.257e-5
0.976,   6.211e-5
0.977,   6.195e-5
0.978,   6.175e-5
0.979,   6.145e-5
0.980,   6.133e-5
0.981,   6.052e-5
0.982,   6.075e-5
0.983,   6.088e-5
0.984,   5.983e-5
0.985,   6.042e-5
0.986,   5.963e-5
0.987,   5.946e-5
0.988,   5.957e-5
0.989,   5.921e-5
0.990,   5.898e-5
0.991,   5.889e-5
0.992,   5.847e-5
0.993,   5.850e-5
0.994,   5.864e-5
0.995,   5.803e-5
0.996,   5.781e-5
0.997,   5.757e-5
0.998,   5.769e-5
0.999,   5.753e-5
1.000,   5.710e-5
1.001,   5.717e-5
1.002,   5.731e-5
1.003,   5.653e-5
1.004,   5.708e-5
1.005,   5.656e-5
1.006,   5.663e-5
1.007,   5.649e-5
1.008,   5.609e-5
1.009,   5.609e-5
1.010,   5.590e-5
1.011,   5.575e-5
1.012,   5.564e-5
1.013,   5.539e-5
1.014,   5.545e-5
1.015,   5.538e-5
1.016,   5.510e-5
1.017,   5.525e-5
1.018,   5.527e-5
1.019,   5.473e-5
1.020,   5.523e-5
1.021,   5.477e-5
1.022,   5.478e-5
1.023,   5.490e-5
1.024,   5.456e-5
1.025,   5.448e-5
1.026,   5.436e-5
1.027,   5.410e-5
1.028,   5.442e-5
1.029,   5.418e-5
1.030,   5.415e-5
1.031,   5.414e-5
1.032,   5.407e-5
1.033,   5.373e-5
1.034,   5.419e-5
1.035,   5.377e-5
1.036,   5.374e-5
1.037,   5.377e-5
1.038,   5.364e-5
1.039,   5.383e-5
1.040,   5.359e-5
1.041,   5.340e-5
1.042,   5.381e-5
1.043,   5.313e-5
1.044,   5.340e-5
1.045,   5.355e-5
1.046,   5.323e-5
1.047,   5.360e-5
1.048,   5.293e-5
1.049,   5.321e-5
1.050,   5.382e-5
1.051,   5.318e-5
1.052,   5.325e-5
1.053,   5.307e-5
1.054,   5.282e-5
1.055,   5.276e-5
1.056,   5.323e-5
1.057,   5.292e-5
1.058,   5.318e-5
1.059,   5.305e-5
1.060,   5.326e-5
1.061,   5.290e-5
1.062,   5.288e-5
1.063,   5.312e-5
1.064,   5.285e-5
1.065,   5.315e-5
1.066,   5.294e-5
1.067,   5.295e-5
1.068,   5.289e-5
1.069,   5.295e-5
1.070,   5.283e-5
1.071,   5.303e-5
1.072,   5.305e-5
1.073,   5.319e-5
1.074,   5.327e-5
1.075,   5.302e-5
1.076,   5.309e-5
1.077,   5.322e-5
1.078,   5.313e-5
1.079,   5.309e-5
1.080,   5.295e-5
1.081,   5.319e-5
1.082,   5.326e-5
1.083,   5.322e-5
1.084,   5.318e-5
1.085,   5.341e-5
1.086,   5.310e-5
1.087,   5.290e-5
1.088,   5.346e-5
1.089,   5.327e-5
1.090,   5.357e-5
1.091,   5.336e-5
1.092,   5.348e-5
1.093,   5.356e-5
1.094,   5.374e-5
1.095,   5.366e-5
1.096,   5.394e-5
1.097,   5.339e-5
1.098,   5.398e-5
1.099,   5.390e-5
1.100,   5.387e-5
1.101,   5.411e-5
1.102,   5.395e-5
1.103,   5.416e-5
1.104,   5.421e-5
1.105,   5.425e-5
1.106,   5.436e-5
1.107,   5.426e-5
1.108,   5.430e-5
1.109,   5.470e-5
1.110,   5.470e-5
1.111,   5.450e-5
1.112,   5.482e-5
1.113,   5.508e-5
1.114,   5.501e-5
1.115,   5.507e-5
1.116,   5.519e-5
1.117,   5.518e-5
1.118,   5.474e-5
1.119,   5.524e-5
1.120,   5.552e-5
1.121,   5.559e-5
1.122,   5.555e-5
1.123,   5.566e-5
1.124,   5.569e-5
1.125,   5.588e-5
1.126,   5.637e-5
1.127,   5.634e-5
1.128,   5.583e-5
1.129,   5.613e-5
1.130,   5.642e-5
1.131,   5.695e-5
1.132,   5.672e-5
1.133,   5.632e-5
1.134,   5.712e-5
1.135,   5.680e-5
1.136,   5.684e-5
1.137,   5.683e-5
1.138,   5.741e-5
1.139,   5.716e-5
1.140,   5.714e-5
1.141,   5.785e-5
1.142,   5.748e-5
1.143,   5.786e-5
1.144,   5.768e-5
1.145,   5.821e-5
1.146,   5.795e-5
1.147,   5.815e-5
1.148,   5.848e-5
1.149,   5.827e-5
1.150,   5.880e-5
1.151,   5.842e-5
1.152,   5.914e-5
1.153,   5.866e-5
1.154,   5.908e-5
1.155,   5.909e-5
1.156,   5.931e-5
1.157,   5.957e-5
1.158,   5.936e-5
1.159,   6.004e-5
1.160,   5.926e-5
1.161,   5.984e-5
1.162,   5.990e-5
1.163,   6.015e-5
1.164,   6.052e-5
1.165,   6.025e-5
1.166,   6.047e-5
1.167,   6.065e-5
1.168,   6.048e-5
1.169,   6.104e-5
1.170,   6.113e-5
1.171,   6.098e-5
1.172,   6.117e-5
1.173,   6.138e-5
1.174,   6.174e-5
1.175,   6.230e-5
1.176,   6.191e-5
1.177,   6.182e-5
1.178,   6.263e-5
1.179,   6.232e-5
1.180,   6.268e-5
1.181,   6.222e-5
1.182,   6.267e-5
1.183,   6.297e-5
1.184,   6.319e-5
1.185,   6.320e-5
1.186,   6.346e-5
1.187,   6.367e-5
1.188,   6.404e-5
1.189,   6.351e-5
1.190,   6.413e-5
1.191,   6.455e-5
1.192,   6.423e-5
1.193,   6.517e-5
1.194,   6.491e-5
1.195,   6.494e-5
1.196,   6.525e-5
1.197,   6.493e-5
1.198,   6.545e-5
1.199,   6.574e-5
1.200,   6.572e-5
1.201,   6.607e-5
1.202,   6.656e-5
1.203,   6.660e-5
1.204,   6.701e-5
1.205,   6.652e-5
1.206,   6.692e-5
1.207,   6.742e-5
1.208,   6.756e-5
1.209,   6.784e-5
1.210,   6.799e-5
1.211,   6.787e-5
1.212,   6.875e-5
1.213,   6.855e-5
1.214,   6.919e-5
1.215,   6.893e-5
1.216,   6.911e-5
1.217,   6.935e-5
1.218,   7.006e-5
1.219,   7.002e-5
1.220,   7.004e-5
1.221,   7.041e-5
1.222,   7.076e-5
1.223,   7.115e-5
1.224,   7.111e-5
1.225,   7.136e-5
1.226,   7.182e-5
1.227,   7.173e-5
1.228,   7.240e-5
1.229,   7.296e-5
1.230,   7.271e-5
1.231,   7.310e-5
1.232,   7.332e-5
1.233,   7.401e-5
1.234,   7.366e-5
1.235,   7.396e-5
1.236,   7.490e-5
1.237,   7.436e-5
1.238,   7.531e-5
1.239,   7.484e-5
1.240,   7.552e-5
1.241,   7.590e-5
1.242,   7.621e-5
1.243,   7.622e-5
1.244,   7.675e-5
1.245,   7.814e-5
1.246,   7.734e-5
1.247,   7.789e-5
1.248,   7.799e-5
1.249,   7.808e-5
1.250,   7.894e-5
1.251,   7.882e-5
1.252,   7.862e-5
1.253,   7.968e-5
1.254,   7.986e-5
1.255,   8.063e-5
1.256,   8.078e-5
1.257,   8.115e-5
1.258,   8.114e-5
1.259,   8.141e-5
1.260,   8.180e-5
1.261,   8.281e-5
1.262,   8.286e-5
1.263,   8.293e-5
1.264,   8.372e-5
1.265,   8.389e-5
1.266,   8.387e-5
1.267,   8.480e-5
1.268,   8.474e-5
1.269,   8.564e-5
1.270,   8.565e-5
1.271,   8.587e-5
1.272,   8.643e-5
1.273,   8.684e-5
1.274,   8.718e-5
1.275,   8.768e-5
1.276,   8.823e-5
1.277,   8.825e-5
1.278,   8.922e-5
1.279,   8.875e-5
1.280,   9.000e-5
1.281,   9.048e-5
1.282,   9.019e-5
1.283,   9.096e-5
1.284,   9.105e-5
1.285,   9.183e-5
1.286,   9.253e-5
1.287,   9.266e-5
1.288,   9.315e-5
1.289,   9.354e-5
1.290,   9.470e-5
1.291,   9.441e-5
1.292,   9.498e-5
1.293,   9.545e-5
1.294,   9.630e-5
1.295,   9.621e-5
1.296,   9.730e-5
1.297,   9.746e-5
1.298,   9.816e-5
1.299,   9.845e-5
1.300,   9.876e-5
1.301,   9.948e-5
1.302,   1.002e-4
1.303,   1.012e-4
1.304,   1.012e-4
1.305,   1.016e-4
1.306,   1.023e-4
1.307,   1.032e-4
1.308,   1.030e-4
1.309,   1.040e-4
1.310,   1.052e-4
1.311,   1.052e-4
1.312,   1.056e-4
1.313,   1.062e-4
1.314,   1.067e-4
1.315,   1.073e-4
1.316,   1.089e-4
1.317,   1.080e-4
1.318,   1.097e-4
1.319,   1.098e-4
1.320,   1.104e-4
1.321,   1.116e-4
1.322,   1.124e-4
1.323,   1.127e-4
1.324,   1.129e-4
1.325,   1.145e-4
1.326,   1.146e-4
1.327,   1.150e-4
1.328,   1.162e-4
1.329,   1.171e-4
1.330,   1.173e-4
1.331,   1.184e-4
1.332,   1.194e-4
1.333,   1.196e-4
1.334,   1.208e-4
1.335,   1.216e-4
1.336,   1.217e-4
1.337,   1.235e-4
1.338,   1.245e-4
1.339,   1.248e-4
1.340,   1.252e-4
1.341,   1.263e-4
1.342,   1.271e-4
1.343,   1.289e-4
1.344,   1.293e-4
1.345,   1.302e-4
1.346,   1.314e-4
1.347,   1.316e-4
1.348,   1.336e-4
1.349,   1.339e-4
1.350,   1.357e-4
1.351,   1.357e-4
1.352,   1.373e-4
1.353,   1.378e-4
1.354,   1.399e-4
1.355,   1.403e-4
1.356,   1.417e-4
1.357,   1.424e-4
1.358,   1.436e-4
1.359,   1.456e-4
1.360,   1.456e-4
1.361,   1.478e-4
1.362,   1.489e-4
1.363,   1.499e-4
1.364,   1.513e-4
1.365,   1.531e-4
1.366,   1.543e-4
1.367,   1.561e-4
1.368,   1.569e-4
1.369,   1.583e-4
1.370,   1.619e-4
1.371,   1.608e-4
1.372,   1.643e-4
1.373,   1.663e-4
1.374,   1.666e-4
1.375,   1.692e-4
1.376,   1.707e-4
1.377,   1.728e-4
1.378,   1.753e-4
1.379,   1.768e-4
1.380,   1.792e-4
1.381,   1.814e-4
1.382,   1.831e-4
1.383,   1.867e-4
1.384,   1.887e-4
1.385,   1.902e-4
1.386,   1.937e-4
1.387,   1.957e-4
1.388,   1.990e-4
1.389,   2.029e-4
1.390,   2.042e-4
1.391,   2.079e-4
1.392,   2.120e-4
1.393,   2.143e-4
1.394,   2.190e-4
1.395,   2.232e-4
1.396,   2.252e-4
1.397,   2.306e-4
1.398,   2.347e-4
1.399,   2.383e-4
1.400,   2.452e-4
1.401,   2.488e-4
1.402,   2.531e-4
1.403,   2.605e-4
1.404,   2.652e-4
1.405,   2.722e-4
1.406,   2.790e-4
1.407,   2.839e-4
1.408,   2.924e-4
1.409,   2.987e-4
1.410,   3.074e-4
1.411,   3.173e-4
1.412,   3.244e-4
1.413,   3.341e-4
1.414,   3.449e-4
1.415,   3.554e-4
1.416,   3.670e-4
1.417,   3.787e-4
1.418,   3.894e-4
1.419,   4.062e-4
1.420,   4.189e-4
1.421,   4.359e-4
1.422,   4.537e-4
1.423,   4.675e-4
1.424,   4.881e-4
1.425,   5.077e-4
1.426,   5.284e-4
1.427,   5.526e-4
1.428,   5.743e-4
1.429,   5.975e-4
1.430,   6.285e-4
1.431,   6.545e-4
1.432,   6.871e-4
1.433,   7.191e-4
1.434,   7.478e-4
1.435,   7.869e-4
1.436,   8.230e-4
1.437,   8.630e-4
1.438,   9.102e-4
1.439,   9.513e-4
1.440,   9.987e-4
1.441,   1.052e-3
1.442,   1.099e-3
1.443,   1.162e-3
1.444,   1.221e-3
1.445,   1.274e-3
1.446,   1.348e-3
1.447,   1.415e-3
1.448,   1.486e-3
1.449,   1.571e-3
1.450,   1.644e-3
1.451,   1.725e-3
1.452,   1.814e-3
1.453,   1.903e-3
1.454,   2.002e-3
1.455,   2.090e-3
1.456,   2.181e-3
1.457,   2.309e-3
1.458,   2.406e-3
1.459,   2.521e-3
1.460,   2.630e-3
1.461,   2.743e-3
1.462,   2.855e-3
1.463,   2.987e-3
1.464,   3.092e-3
1.465,   3.213e-3
1.466,   3.318e-3
1.467,   3.442e-3
1.468,   3.561e-3
1.469,   3.645e-3
1.470,   3.773e-3
1.471,   3.867e-3
1.472,   3.968e-3
1.473,   4.066e-3
1.474,   4.140e-3
1.475,   4.232e-3
1.476,   4.322e-3
1.477,   4.389e-3
1.478,   4.466e-3
1.479,   4.522e-3
1.480,   4.552e-3
1.481,   4.579e-3
1.482,   4.604e-3
1.483,   4.649e-3
1.484,   4.680e-3
1.485,   4.671e-3
1.486,   4.672e-3
1.487,   4.692e-3
1.488,   4.670e-3
1.489,   4.668e-3
1.490,   4.647e-3
1.491,   4.629e-3
1.492,   4.586e-3
1.493,   4.521e-3
1.494,   4.512e-3
1.495,   4.492e-3
1.496,   4.450e-3
1.497,   4.424e-3
1.498,   4.389e-3
1.499,   4.338e-3
1.500,   4.297e-3
1.501,   4.269e-3
1.502,   4.228e-3
1.503,   4.189e-3
1.504,   4.167e-3
1.505,   4.142e-3
1.506,   4.112e-3
1.507,   4.071e-3
1.508,   4.057e-3
1.509,   4.029e-3
1.510,   4.003e-3
1.511,   3.980e-3