File: Experimental Records, Raw Data, and Supplementary Notes and Figures/batch5/final400/B5_BEST_400_#1_Full(#6)-198mV.txt
May 30, 2023   21:53:43
Linear Sweep Voltammetry
File: d:\current work\al_oer\electrochemical test data\batch 5\400\B5_BEST_400_#1_Full(#6)-198mV.txt
Data Source:  Experiment
Instrument Model:  CHI660E
Header:
Note:

Init E (V) = 0.900

Final E (V) = 1.475

Scan Rate (V/s) = 0.010
Sample Interval (V) = 0.001
Quiet Time (sec) = 2
Sensitivity (A/V) = 0.001
Comp R (ohm) = 4.4

Results:

Channel 1:

Potential/V, Current/A
0.900,   4.084e-4
0.901,   4.392e-4
0.902,   4.267e-4
0.903,   4.128e-4
0.904,   4.005e-4
0.905,   3.896e-4
0.906,   3.787e-4
0.907,   3.696e-4
0.908,   3.584e-4
0.909,   3.474e-4
0.910,   3.441e-4
0.911,   3.344e-4
0.912,   3.297e-4
0.913,   3.221e-4
0.914,   3.184e-4
0.915,   3.109e-4
0.916,   3.046e-4
0.917,   3.014e-4
0.918,   2.998e-4
0.919,   2.903e-4
0.920,   2.877e-4
0.921,   2.867e-4
0.922,   2.789e-4
0.923,   2.764e-4
0.924,   2.767e-4
0.925,   2.720e-4
0.926,   2.680e-4
0.927,   2.658e-4
0.928,   2.621e-4
0.929,   2.589e-4
0.930,   2.586e-4
0.931,   2.591e-4
0.932,   2.539e-4
0.933,   2.510e-4
0.934,   2.501e-4
0.935,   2.471e-4
0.936,   2.469e-4
0.937,   2.458e-4
0.938,   2.455e-4
0.939,   2.408e-4
0.940,   2.396e-4
0.941,   2.390e-4
0.942,   2.358e-4
0.943,   2.377e-4
0.944,   2.349e-4
0.945,   2.341e-4
0.946,   2.316e-4
0.947,   2.301e-4
0.948,   2.321e-4
0.949,   2.282e-4
0.950,   2.279e-4
0.951,   2.277e-4
0.952,   2.260e-4
0.953,   2.245e-4
0.954,   2.220e-4
0.955,   2.234e-4
0.956,   2.221e-4
0.957,   2.219e-4
0.958,   2.183e-4
0.959,   2.198e-4
0.960,   2.187e-4
0.961,   2.184e-4
0.962,   2.191e-4
0.963,   2.156e-4
0.964,   2.161e-4
0.965,   2.171e-4
0.966,   2.125e-4
0.967,   2.146e-4
0.968,   2.153e-4
0.969,   2.156e-4
0.970,   2.129e-4
0.971,   2.105e-4
0.972,   2.109e-4
0.973,   2.117e-4
0.974,   2.121e-4
0.975,   2.113e-4
0.976,   2.089e-4
0.977,   2.083e-4
0.978,   2.086e-4
0.979,   2.088e-4
0.980,   2.096e-4
0.981,   2.106e-4
0.982,   2.062e-4
0.983,   2.066e-4
0.984,   2.053e-4
0.985,   2.058e-4
0.986,   2.076e-4
0.987,   2.086e-4
0.988,   2.051e-4
0.989,   2.062e-4
0.990,   2.055e-4
0.991,   2.038e-4
0.992,   2.066e-4
0.993,   2.049e-4
0.994,   2.029e-4
0.995,   2.034e-4
0.996,   2.039e-4
0.997,   2.017e-4
0.998,   2.030e-4
0.999,   2.043e-4
1.000,   2.040e-4
1.001,   2.016e-4
1.002,   2.022e-4
1.003,   2.022e-4
1.004,   2.004e-4
1.005,   2.025e-4
1.006,   2.025e-4
1.007,   2.011e-4
1.008,   2.003e-4
1.009,   2.003e-4
1.010,   2.028e-4
1.011,   2.004e-4
1.012,   2.020e-4
1.013,   2.034e-4
1.014,   1.999e-4
1.015,   1.998e-4
1.016,   2.000e-4
1.017,   2.007e-4
1.018,   2.006e-4
1.019,   2.003e-4
1.020,   1.987e-4
1.021,   2.006e-4
1.022,   1.999e-4
1.023,   2.006e-4
1.024,   1.999e-4
1.025,   1.999e-4
1.026,   2.001e-4
1.027,   2.002e-4
1.028,   1.989e-4
1.029,   2.004e-4
1.030,   2.003e-4
1.031,   1.988e-4
1.032,   1.997e-4
1.033,   2.015e-4
1.034,   1.995e-4
1.035,   1.977e-4
1.036,   1.992e-4
1.037,   2.013e-4
1.038,   1.995e-4
1.039,   1.996e-4
1.040,   1.998e-4
1.041,   1.987e-4
1.042,   1.988e-4
1.043,   2.013e-4
1.044,   2.028e-4
1.045,   1.980e-4
1.046,   1.991e-4
1.047,   2.001e-4
1.048,   2.019e-4
1.049,   2.013e-4
1.050,   2.019e-4
1.051,   1.993e-4
1.052,   1.975e-4
1.053,   1.998e-4
1.054,   2.004e-4
1.055,   2.005e-4
1.056,   2.014e-4
1.057,   2.012e-4
1.058,   1.992e-4
1.059,   1.993e-4
1.060,   1.991e-4
1.061,   2.042e-4
1.062,   2.020e-4
1.063,   2.014e-4
1.064,   2.003e-4
1.065,   2.005e-4
1.066,   2.004e-4
1.067,   2.028e-4
1.068,   2.025e-4
1.069,   2.046e-4
1.070,   2.030e-4
1.071,   2.025e-4
1.072,   2.012e-4
1.073,   1.993e-4
1.074,   2.056e-4
1.075,   2.039e-4
1.076,   2.032e-4
1.077,   2.018e-4
1.078,   2.036e-4
1.079,   2.021e-4
1.080,   2.043e-4
1.081,   2.058e-4
1.082,   2.039e-4
1.083,   2.022e-4
1.084,   2.043e-4
1.085,   2.040e-4
1.086,   2.041e-4
1.087,   2.072e-4
1.088,   2.070e-4
1.089,   2.044e-4
1.090,   2.057e-4
1.091,   2.044e-4
1.092,   2.064e-4
1.093,   2.075e-4
1.094,   2.104e-4
1.095,   2.059e-4
1.096,   2.059e-4
1.097,   2.088e-4
1.098,   2.062e-4
1.099,   2.086e-4
1.100,   2.096e-4
1.101,   2.093e-4
1.102,   2.091e-4
1.103,   2.067e-4
1.104,   2.091e-4
1.105,   2.082e-4
1.106,   2.105e-4
1.107,   2.111e-4
1.108,   2.100e-4
1.109,   2.097e-4
1.110,   2.098e-4
1.111,   2.129e-4
1.112,   2.112e-4
1.113,   2.134e-4
1.114,   2.135e-4
1.115,   2.122e-4
1.116,   2.137e-4
1.117,   2.110e-4
1.118,   2.163e-4
1.119,   2.145e-4
1.120,   2.164e-4
1.121,   2.137e-4
1.122,   2.156e-4
1.123,   2.147e-4
1.124,   2.156e-4
1.125,   2.184e-4
1.126,   2.171e-4
1.127,   2.170e-4
1.128,   2.175e-4
1.129,   2.198e-4
1.130,   2.184e-4
1.131,   2.162e-4
1.132,   2.188e-4
1.133,   2.188e-4
1.134,   2.197e-4
1.135,   2.194e-4
1.136,   2.231e-4
1.137,   2.206e-4
1.138,   2.212e-4
1.139,   2.207e-4
1.140,   2.207e-4
1.141,   2.201e-4
1.142,   2.233e-4
1.143,   2.240e-4
1.144,   2.259e-4
1.145,   2.255e-4
1.146,   2.239e-4
1.147,   2.231e-4
1.148,   2.239e-4
1.149,   2.273e-4
1.150,   2.266e-4
1.151,   2.241e-4
1.152,   2.263e-4
1.153,   2.263e-4
1.154,   2.276e-4
1.155,   2.282e-4
1.156,   2.295e-4
1.157,   2.278e-4
1.158,   2.278e-4
1.159,   2.304e-4
1.160,   2.301e-4
1.161,   2.294e-4
1.162,   2.321e-4
1.163,   2.360e-4
1.164,   2.326e-4
1.165,   2.324e-4
1.166,   2.330e-4
1.167,   2.336e-4
1.168,   2.351e-4
1.169,   2.364e-4
1.170,   2.348e-4
1.171,   2.338e-4
1.172,   2.354e-4
1.173,   2.363e-4
1.174,   2.374e-4
1.175,   2.404e-4
1.176,   2.386e-4
1.177,   2.355e-4
1.178,   2.396e-4
1.179,   2.375e-4
1.180,   2.397e-4
1.181,   2.428e-4
1.182,   2.410e-4
1.183,   2.440e-4
1.184,   2.402e-4
1.185,   2.414e-4
1.186,   2.438e-4
1.187,   2.457e-4
1.188,   2.464e-4
1.189,   2.458e-4
1.190,   2.433e-4
1.191,   2.461e-4
1.192,   2.455e-4
1.193,   2.486e-4
1.194,   2.521e-4
1.195,   2.450e-4
1.196,   2.492e-4
1.197,   2.482e-4
1.198,   2.491e-4
1.199,   2.515e-4
1.200,   2.523e-4
1.201,   2.531e-4
1.202,   2.520e-4
1.203,   2.522e-4
1.204,   2.546e-4
1.205,   2.521e-4
1.206,   2.564e-4
1.207,   2.564e-4
1.208,   2.546e-4
1.209,   2.547e-4
1.210,   2.567e-4
1.211,   2.588e-4
1.212,   2.587e-4
1.213,   2.606e-4
1.214,   2.590e-4
1.215,   2.588e-4
1.216,   2.609e-4
1.217,   2.629e-4
1.218,   2.634e-4
1.219,   2.640e-4
1.220,   2.642e-4
1.221,   2.597e-4
1.222,   2.624e-4
1.223,   2.652e-4
1.224,   2.664e-4
1.225,   2.667e-4
1.226,   2.676e-4
1.227,   2.689e-4
1.228,   2.659e-4
1.229,   2.713e-4
1.230,   2.680e-4
1.231,   2.733e-4
1.232,   2.714e-4
1.233,   2.722e-4
1.234,   2.712e-4
1.235,   2.742e-4
1.236,   2.740e-4
1.237,   2.764e-4
1.238,   2.776e-4
1.239,   2.741e-4
1.240,   2.713e-4
1.241,   2.751e-4
1.242,   2.781e-4
1.243,   2.783e-4
1.244,   2.821e-4
1.245,   2.796e-4
1.246,   2.765e-4
1.247,   2.806e-4
1.248,   2.811e-4
1.249,   2.814e-4
1.250,   2.840e-4
1.251,   2.859e-4
1.252,   2.831e-4
1.253,   2.834e-4
1.254,   2.823e-4
1.255,   2.861e-4
1.256,   2.880e-4
1.257,   2.895e-4
1.258,   2.874e-4
1.259,   2.872e-4
1.260,   2.876e-4
1.261,   2.891e-4
1.262,   2.936e-4
1.263,   2.899e-4
1.264,   2.956e-4
1.265,   2.889e-4
1.266,   2.898e-4
1.267,   2.928e-4
1.268,   2.957e-4
1.269,   2.954e-4
1.270,   2.970e-4
1.271,   2.975e-4
1.272,   2.945e-4
1.273,   2.965e-4
1.274,   3.015e-4
1.275,   3.017e-4
1.276,   3.009e-4
1.277,   2.994e-4
1.278,   3.027e-4
1.279,   3.003e-4
1.280,   3.044e-4
1.281,   3.059e-4
1.282,   3.079e-4
1.283,   3.070e-4
1.284,   3.041e-4
1.285,   3.067e-4
1.286,   3.076e-4
1.287,   3.127e-4
1.288,   3.133e-4
1.289,   3.092e-4
1.290,   3.087e-4
1.291,   3.101e-4
1.292,   3.142e-4
1.293,   3.190e-4
1.294,   3.164e-4
1.295,   3.124e-4
1.296,   3.139e-4
1.297,   3.149e-4
1.298,   3.180e-4
1.299,   3.206e-4
1.300,   3.203e-4
1.301,   3.208e-4
1.302,   3.203e-4
1.303,   3.209e-4
1.304,   3.222e-4
1.305,   3.237e-4
1.306,   3.283e-4
1.307,   3.263e-4
1.308,   3.273e-4
1.309,   3.281e-4
1.310,   3.289e-4
1.311,   3.297e-4
1.312,   3.321e-4
1.313,   3.359e-4
1.314,   3.340e-4
1.315,   3.349e-4
1.316,   3.336e-4
1.317,   3.358e-4
1.318,   3.380e-4
1.319,   3.412e-4
1.320,   3.413e-4
1.321,   3.396e-4
1.322,   3.455e-4
1.323,   3.397e-4
1.324,   3.451e-4
1.325,   3.461e-4
1.326,   3.494e-4
1.327,   3.499e-4
1.328,   3.519e-4
1.329,   3.529e-4
1.330,   3.514e-4
1.331,   3.566e-4
1.332,   3.613e-4
1.333,   3.589e-4
1.334,   3.591e-4
1.335,   3.616e-4
1.336,   3.602e-4
1.337,   3.668e-4
1.338,   3.675e-4
1.339,   3.682e-4
1.340,   3.684e-4
1.341,   3.694e-4
1.342,   3.724e-4
1.343,   3.747e-4
1.344,   3.797e-4
1.345,   3.816e-4
1.346,   3.840e-4
1.347,   3.826e-4
1.348,   3.846e-4
1.349,   3.823e-4
1.350,   3.923e-4
1.351,   3.918e-4
1.352,   3.915e-4
1.353,   3.970e-4
1.354,   3.985e-4
1.355,   3.960e-4
1.356,   4.065e-4
1.357,   4.045e-4
1.358,   4.055e-4
1.359,   4.118e-4
1.360,   4.104e-4
1.361,   4.145e-4
1.362,   4.242e-4
1.363,   4.235e-4
1.364,   4.250e-4
1.365,   4.258e-4
1.366,   4.340e-4
1.367,   4.327e-4
1.368,   4.396e-4
1.369,   4.453e-4
1.370,   4.491e-4
1.371,   4.501e-4
1.372,   4.528e-4
1.373,   4.575e-4
1.374,   4.618e-4
1.375,   4.741e-4
1.376,   4.770e-4
1.377,   4.773e-4
1.378,   4.789e-4
1.379,   4.869e-4
1.380,   4.969e-4
1.381,   5.023e-4
1.382,   5.096e-4
1.383,   5.157e-4
1.384,   5.211e-4
1.385,   5.269e-4
1.386,   5.309e-4
1.387,   5.452e-4
1.388,   5.545e-4
1.389,   5.656e-4
1.390,   5.720e-4
1.391,   5.783e-4
1.392,   5.861e-4
1.393,   6.038e-4
1.394,   6.148e-4
1.395,   6.290e-4
1.396,   6.388e-4
1.397,   6.465e-4
1.398,   6.618e-4
1.399,   6.845e-4
1.400,   6.989e-4
1.401,   7.158e-4
1.402,   7.308e-4
1.403,   7.447e-4
1.404,   7.710e-4
1.405,   7.913e-4
1.406,   8.177e-4
1.407,   8.414e-4
1.408,   8.693e-4
1.409,   8.926e-4
1.410,   9.144e-4
1.411,   9.444e-4
1.412,   9.848e-4
1.413,   1.030e-3
1.414,   1.060e-3
1.415,   1.090e-3
1.416,   1.134e-3
1.417,   1.178e-3
1.418,   1.228e-3
1.419,   1.285e-3
1.420,   1.338e-3
1.421,   1.385e-3
1.422,   1.446e-3
1.423,   1.507e-3
1.424,   1.577e-3
1.425,   1.650e-3
1.426,   1.728e-3
1.427,   1.808e-3
1.428,   1.879e-3
1.429,   1.955e-3
1.430,   2.064e-3
1.431,   2.158e-3
1.432,   2.265e-3
1.433,   2.380e-3
1.434,   2.478e-3
1.435,   2.591e-3
1.436,   2.712e-3
1.437,   2.839e-3
1.438,   2.983e-3
1.439,   3.125e-3
1.440,   3.278e-3
1.441,   3.406e-3
1.442,   3.552e-3
1.443,   3.706e-3
1.444,   3.880e-3
1.445,   4.054e-3
1.446,   4.255e-3
1.447,   4.409e-3
1.448,   4.602e-3
1.449,   4.827e-3
1.450,   5.054e-3
1.451,   5.271e-3
1.452,   5.479e-3
1.453,   5.683e-3
1.454,   5.879e-3
1.455,   6.082e-3
1.456,   6.340e-3
1.457,   6.679e-3
1.458,   6.883e-3
1.459,   7.160e-3
1.460,   7.424e-3
1.461,   7.685e-3
1.462,   7.981e-3
1.463,   8.335e-3
1.464,   8.601e-3
1.465,   8.905e-3
1.466,   9.144e-3
1.467,   9.366e-3
1.468,   9.521e-3
1.469,   9.810e-3
1.470,   9.912e-3
1.471,   1.002e-2
1.472,   1.005e-2
1.473,   1.007e-2
1.474,   1.007e-2
1.475,   1.007e-2